measurement_id,sub_id,network,trial,startpoint_id,endpoint_id,opt1_id,opt2_id,correct_choice,sub_choice,correct,rt,dist_opt1,dist_opt2,shortest_path_given_opts,shortest_path_given_start_end,one_impossible_option,two_correct_options
1,1,learned,1,4,9,3,5,3,5,FALSE,11785.39999946952,5,6,5,4,FALSE,FALSE
1,1,learned,2,4,9,2,6,2,6,FALSE,6445.699999108911,4,8,4,4,FALSE,FALSE
1,1,learned,3,10,4,8,12,8,8,TRUE,6953.299999237061,4,7,4,4,FALSE,FALSE
1,1,learned,4,2,5,3,1,3,3,TRUE,6498.9000000059605,2,NA,2,2,TRUE,FALSE
1,1,learned,5,13,10,12,11,12,12,TRUE,6529.30000051856,2,3,2,2,FALSE,FALSE
1,1,learned,6,2,7,4,1,4,4,TRUE,36382.49999843538,3,NA,3,3,TRUE,FALSE
1,1,learned,7,6,3,4,7,4,4,TRUE,4186.300000175834,2,3,2,2,FALSE,FALSE
1,1,learned,8,8,11,9,1,9,9,TRUE,5088.499998673797,2,NA,2,2,TRUE,FALSE
1,1,learned,9,3,10,2,4,2,4,FALSE,3485.1000010967255,4,5,4,4,FALSE,FALSE
1,1,learned,10,4,10,2,6,2,2,TRUE,49192.599998787045,4,8,4,4,FALSE,FALSE
1,1,learned,11,13,9,11,12,11,11,TRUE,5335.699999704957,2,3,2,2,FALSE,FALSE
1,1,learned,12,11,1,9,12,9,12,FALSE,8040.699999779463,3,4,3,3,FALSE,FALSE
1,1,learned,13,4,8,5,6,5,5,TRUE,5536.499999463558,5,7,5,3,FALSE,FALSE
1,1,learned,14,2,7,3,1,3,3,TRUE,12505.699999630451,3,NA,3,3,TRUE,FALSE
1,1,learned,15,13,8,11,12,NA,12,TRUE,9747.600000351667,3,3,3,3,FALSE,TRUE
1,1,learned,16,8,12,10,1,10,10,TRUE,8942.400000989437,2,NA,2,2,TRUE,FALSE
1,1,learned,17,1,11,8,2,8,2,FALSE,9343.000000342729,3,NA,3,3,TRUE,FALSE
1,1,learned,18,11,1,9,13,9,13,FALSE,24811.000000685453,3,5,3,3,FALSE,FALSE
1,1,learned,19,2,10,1,4,1,4,FALSE,8413.399999961257,3,NA,3,3,TRUE,FALSE
1,1,learned,20,4,1,3,5,3,3,TRUE,9049.700001254678,3,4,3,2,FALSE,FALSE
1,1,learned,21,3,10,2,5,2,2,TRUE,2934.500001370907,4,6,4,4,FALSE,FALSE
1,1,learned,22,2,8,1,3,1,1,TRUE,9889.700001105666,2,NA,2,2,TRUE,FALSE
1,1,learned,23,5,2,4,7,4,4,TRUE,4495.49999833107,2,4,2,2,FALSE,FALSE
1,1,learned,24,3,1,2,5,2,2,TRUE,5393.500000238419,2,4,2,2,FALSE,FALSE
1,1,learned,25,8,13,9,1,9,9,TRUE,6443.70000064373,3,NA,3,3,TRUE,FALSE
1,1,learned,26,12,9,11,13,11,11,TRUE,3143.6000000685453,2,3,2,2,FALSE,FALSE
1,1,learned,27,8,3,1,10,1,10,FALSE,9017.200000584126,3,NA,3,3,TRUE,FALSE
1,1,learned,28,11,2,9,13,9,13,FALSE,15976.700000464916,4,6,4,4,FALSE,FALSE
1,1,learned,29,4,7,5,6,NA,5,TRUE,11106.70000128448,2,2,2,2,FALSE,TRUE
1,1,learned,30,8,12,9,1,9,9,TRUE,9191.100001335144,3,NA,3,2,TRUE,FALSE
1,1,learned,31,8,13,9,10,NA,9,TRUE,12047.89999872446,3,3,3,3,FALSE,TRUE
1,1,learned,32,1,7,2,8,2,8,FALSE,7112.099999561906,4,NA,4,4,TRUE,FALSE
1,1,learned,33,11,10,12,13,12,12,TRUE,3919.600000604987,2,3,2,2,FALSE,FALSE
1,1,learned,34,9,1,8,11,8,8,TRUE,3074.700001627207,2,5,2,2,FALSE,FALSE
1,1,learned,35,4,8,2,5,2,5,FALSE,5739.799998700619,3,5,3,3,FALSE,FALSE
1,1,learned,36,9,3,8,11,8,8,TRUE,2821.6999992728233,4,7,4,4,FALSE,FALSE
1,1,learned,37,5,8,4,7,4,4,TRUE,3655.4000005126,4,6,4,4,FALSE,FALSE
1,1,learned,38,4,1,3,6,3,3,TRUE,5233.599999919534,3,6,3,2,FALSE,FALSE
1,1,learned,39,12,1,10,13,10,13,FALSE,6153.300000354648,3,5,3,3,FALSE,FALSE
1,1,learned,40,7,3,5,6,5,6,FALSE,11624.699998646976,2,3,2,2,FALSE,FALSE
1,1,learned,41,12,2,11,13,11,11,TRUE,23672.700000926852,5,6,5,4,FALSE,FALSE
1,1,learned,42,10,9,8,12,8,12,FALSE,4095.7999993115664,2,3,2,2,FALSE,FALSE
1,1,learned,43,4,9,2,3,2,3,FALSE,5723.699999973178,4,5,4,4,FALSE,FALSE
1,1,learned,44,1,13,8,2,8,8,TRUE,6200.600000098348,4,NA,4,4,TRUE,FALSE
1,1,learned,45,2,6,3,1,3,3,TRUE,6063.5999999940395,3,NA,3,2,TRUE,FALSE
1,1,learned,46,11,10,9,13,NA,13,TRUE,8563.000001013279,3,3,3,2,FALSE,TRUE
1,1,learned,47,8,12,10,9,10,10,TRUE,18580.900000408292,2,3,2,2,FALSE,FALSE
1,1,learned,48,11,8,9,12,9,12,FALSE,5269.999999552965,2,3,2,2,FALSE,FALSE
1,1,learned,49,8,4,1,9,1,9,FALSE,1909.2999994754791,3,NA,3,3,TRUE,FALSE
1,1,learned,50,12,8,10,13,10,13,FALSE,3619.400000199675,2,4,2,2,FALSE,FALSE
1,1,learned,51,4,9,5,6,5,5,TRUE,5203.900000080466,6,8,6,4,FALSE,FALSE
1,1,learned,52,8,2,1,10,1,1,TRUE,2934.40000154078,2,NA,2,2,TRUE,FALSE
1,1,learned,53,3,7,5,4,5,5,TRUE,2396.800000220537,2,3,2,2,FALSE,FALSE
1,1,learned,54,9,10,8,11,8,8,TRUE,2298.1000002473593,2,3,2,2,FALSE,FALSE
1,1,learned,55,3,8,2,4,2,4,FALSE,2047.2999997437,3,4,3,3,FALSE,FALSE
1,1,learned,56,1,10,8,2,8,8,TRUE,3985.500000417233,2,NA,2,2,TRUE,FALSE
1,1,learned,57,4,7,6,2,6,6,TRUE,3525.4000015556812,2,4,2,2,FALSE,FALSE
1,1,learned,58,12,1,10,11,10,11,FALSE,6351.499998942018,3,4,3,3,FALSE,FALSE
1,1,learned,59,7,2,5,6,NA,6,TRUE,11938.59999999404,3,3,3,3,FALSE,TRUE
1,1,learned,60,4,1,2,6,2,2,TRUE,3426.2000005692244,2,6,2,2,FALSE,FALSE
1,1,learned,61,2,9,1,4,1,4,FALSE,3693.499999120831,3,NA,3,3,TRUE,FALSE
1,1,learned,62,4,1,2,5,2,2,TRUE,3238.099999725818,2,4,2,2,FALSE,FALSE
1,1,learned,63,9,2,8,11,8,8,TRUE,4214.299999177456,3,6,3,3,FALSE,FALSE
1,1,learned,64,4,1,5,6,5,5,TRUE,6882.4000004678965,4,6,4,2,FALSE,FALSE
1,1,learned,65,6,1,4,7,4,4,TRUE,6166.000001132488,3,5,3,3,FALSE,FALSE
1,1,learned,66,12,2,10,11,10,11,FALSE,4638.199999928474,4,5,4,4,FALSE,FALSE
1,1,learned,67,8,6,1,10,1,10,FALSE,3830.5999990552664,4,NA,4,4,TRUE,FALSE
1,1,learned,68,11,8,9,13,9,13,FALSE,6055.500000715256,2,4,2,2,FALSE,FALSE
1,1,learned,69,11,8,12,13,12,12,TRUE,4574.200000613928,3,4,3,2,FALSE,FALSE
1,1,learned,70,10,11,12,8,12,8,FALSE,4586.200000718236,2,3,2,2,FALSE,FALSE
1,1,learned,71,1,4,2,8,2,2,TRUE,2304.8000000417233,2,NA,2,2,TRUE,FALSE
1,1,learned,72,5,1,3,4,NA,4,TRUE,5247.300000861287,3,3,3,3,FALSE,TRUE
1,1,learned,73,5,8,3,7,3,7,FALSE,4448.400000110269,4,6,4,4,FALSE,FALSE
1,1,learned,74,2,11,1,4,1,4,FALSE,6454.900000244379,4,NA,4,4,TRUE,FALSE
1,1,learned,75,4,10,2,3,2,2,TRUE,1750.399999320507,4,5,4,4,FALSE,FALSE
1,1,learned,76,12,1,11,13,11,11,TRUE,9118.599999696016,4,5,4,3,FALSE,FALSE
1,1,learned,77,6,8,4,7,4,4,TRUE,3766.099998727441,4,6,4,4,FALSE,FALSE
1,1,learned,78,3,9,4,5,4,4,TRUE,8620.699999853969,5,6,5,4,FALSE,FALSE
1,1,learned,79,3,1,2,4,2,2,TRUE,2114.0999998897314,2,3,2,2,FALSE,FALSE
1,1,learned,80,3,6,4,2,4,4,TRUE,2852.299999445677,2,3,2,2,FALSE,FALSE
1,1,learned,81,12,9,11,10,11,11,TRUE,3101.300001144409,2,3,2,2,FALSE,FALSE
1,1,learned,82,1,5,2,8,2,8,FALSE,3951.600000262261,3,NA,3,3,TRUE,FALSE
1,1,learned,83,3,8,2,5,2,5,FALSE,3470.099998638034,3,5,3,3,FALSE,FALSE
1,1,learned,84,11,2,9,12,9,12,FALSE,6277.499999850988,4,5,4,4,FALSE,FALSE
1,1,learned,85,2,5,3,4,NA,4,TRUE,2877.3999996483326,2,2,2,2,FALSE,TRUE
1,1,learned,86,4,10,5,6,5,6,FALSE,5775.200000032783,6,8,6,4,FALSE,FALSE
1,1,learned,87,7,4,5,6,NA,5,TRUE,5222.400000318885,2,2,2,2,FALSE,TRUE
1,1,learned,88,1,12,8,2,8,2,FALSE,5188.999999314547,3,NA,3,3,TRUE,FALSE
1,1,learned,89,6,5,4,7,NA,4,TRUE,2442.299999296665,2,2,2,2,FALSE,TRUE
1,1,learned,90,3,7,4,2,4,4,TRUE,5321.599999442697,3,4,3,2,FALSE,FALSE
1,1,learned,91,2,5,4,1,4,4,TRUE,8992.500001564622,2,NA,2,2,TRUE,FALSE
1,1,learned,92,4,8,3,5,3,5,FALSE,4245.600000023842,4,5,4,3,FALSE,FALSE
1,1,learned,93,3,6,4,5,4,4,TRUE,2880.10000064969,2,3,2,2,FALSE,FALSE
1,1,learned,94,10,1,8,12,8,8,TRUE,6145.400000736117,2,5,2,2,FALSE,FALSE
1,1,learned,95,8,2,1,9,1,1,TRUE,2119.6000017225742,2,NA,2,2,TRUE,FALSE
1,1,learned,96,8,11,10,1,10,1,FALSE,4429.999999701977,3,NA,3,2,TRUE,FALSE
1,1,learned,97,8,3,1,9,1,1,TRUE,2617.3000000417233,3,NA,3,3,TRUE,FALSE
1,1,learned,98,12,8,11,13,11,11,TRUE,10844.499999657271,3,4,3,2,FALSE,FALSE
1,1,learned,99,13,1,11,12,NA,12,TRUE,3605.399999767542,4,4,4,4,FALSE,TRUE
1,1,learned,100,4,9,2,5,2,5,FALSE,2672.2999997437,4,6,4,4,FALSE,FALSE
1,1,learned,101,2,9,1,3,1,3,FALSE,2539.200000464916,3,NA,3,3,TRUE,FALSE
1,1,learned,102,8,5,1,9,1,1,TRUE,19107.400000095367,4,NA,4,4,TRUE,FALSE
1,1,learned,103,4,7,6,3,6,6,TRUE,2363.6000007390976,2,3,2,2,FALSE,FALSE
1,1,learned,104,8,5,1,10,1,1,TRUE,2632.100000977516,4,NA,4,4,TRUE,FALSE
1,1,learned,105,2,6,4,1,4,4,TRUE,2121.9999995082617,2,NA,2,2,TRUE,FALSE
1,1,learned,106,8,6,1,9,1,1,TRUE,9319.599999114873,4,NA,4,4,TRUE,FALSE
1,1,learned,107,8,4,1,10,1,1,TRUE,3481.3999999314547,3,NA,3,3,TRUE,FALSE
1,1,learned,108,2,8,1,4,1,4,FALSE,2096.5999998152256,2,NA,2,2,TRUE,FALSE
1,1,learned,109,2,12,1,4,1,4,FALSE,2273.299999535084,4,NA,4,4,TRUE,FALSE
1,1,learned,110,9,12,11,8,11,11,TRUE,3384.399998933077,2,3,2,2,FALSE,FALSE
1,1,learned,111,1,3,2,8,2,8,FALSE,5481.200000271201,2,NA,2,2,TRUE,FALSE
1,1,learned,112,3,9,2,5,2,2,TRUE,1950.2000007778408,4,6,4,4,FALSE,FALSE
1,1,learned,113,2,10,1,3,1,3,FALSE,8919.399999082088,3,NA,3,3,TRUE,FALSE
1,1,learned,114,3,1,4,5,4,4,TRUE,4222.200000658631,3,4,3,2,FALSE,FALSE
1,1,learned,115,12,8,10,11,10,11,FALSE,2818.3999992907047,2,3,2,2,FALSE,FALSE
1,1,learned,116,11,10,12,9,12,12,TRUE,2560.3999998420477,2,3,2,2,FALSE,FALSE
1,1,learned,117,4,7,5,3,5,5,TRUE,2138.1999999284744,2,3,2,2,FALSE,FALSE
1,1,learned,118,8,11,9,10,9,10,FALSE,5048.299999907613,2,3,2,2,FALSE,FALSE
1,1,learned,119,3,6,2,5,NA,2,TRUE,2038.500001654029,3,3,3,2,FALSE,TRUE
1,1,learned,120,10,2,8,12,8,12,FALSE,2080.900000408292,3,6,3,3,FALSE,FALSE
1,1,learned,121,10,3,8,12,8,12,FALSE,6340.599998831749,4,7,4,4,FALSE,FALSE
1,1,learned,122,11,2,12,13,12,13,FALSE,4036.100000143051,5,6,5,4,FALSE,FALSE
1,1,learned,123,4,9,3,6,3,6,FALSE,2444.9000004678965,5,8,5,4,FALSE,FALSE
1,1,learned,124,4,7,3,2,3,3,TRUE,2070.3999996185303,3,4,3,2,FALSE,FALSE
1,1,learned,125,4,10,2,5,2,2,TRUE,2601.9999999552965,4,6,4,4,FALSE,FALSE
1,1,learned,126,6,2,4,7,4,4,TRUE,1781.8999998271463,2,4,2,2,FALSE,FALSE
1,1,learned,127,4,10,3,5,3,3,TRUE,3390.8999990671873,5,6,5,4,FALSE,FALSE
1,1,learned,128,5,2,3,7,3,7,FALSE,3580.299999564886,2,4,2,2,FALSE,FALSE
1,1,learned,129,12,9,10,13,NA,10,TRUE,1955.800000578165,3,3,3,2,FALSE,TRUE
1,1,learned,130,2,11,1,3,1,3,FALSE,7081.499999389052,4,NA,4,4,TRUE,FALSE
1,1,learned,131,10,13,12,8,12,8,FALSE,3280.6000001728535,2,4,2,2,FALSE,FALSE
1,1,learned,132,4,1,2,3,2,2,TRUE,6098.400000482798,2,3,2,2,FALSE,FALSE
1,1,learned,133,5,6,4,3,4,4,TRUE,3379.3000001460314,2,3,2,2,FALSE,FALSE
1,1,learned,134,9,13,11,8,11,11,TRUE,2302.4999983608723,2,4,2,2,FALSE,FALSE
1,1,learned,135,5,6,7,3,7,7,TRUE,2785.199999809265,2,3,2,2,FALSE,FALSE
1,1,learned,136,1,6,2,8,2,2,TRUE,3681.199999526143,3,NA,3,3,TRUE,FALSE
1,1,learned,137,2,12,1,3,1,3,FALSE,9374.70000050962,4,NA,4,4,TRUE,FALSE
1,1,learned,138,12,2,10,13,10,13,FALSE,2532.200001180172,4,6,4,4,FALSE,FALSE
1,1,learned,139,5,1,3,7,3,3,TRUE,3025.100000202656,3,5,3,3,FALSE,FALSE
1,1,learned,140,8,13,10,1,10,1,FALSE,4611.500000581145,3,NA,3,3,TRUE,FALSE
1,1,learned,141,5,8,3,4,NA,4,TRUE,2550.900001078844,4,4,4,4,FALSE,TRUE
1,1,learned,142,5,2,3,4,NA,3,TRUE,1898.199999704957,2,2,2,2,FALSE,TRUE
1,1,learned,143,4,8,2,3,2,3,FALSE,2220.1999984681606,3,4,3,3,FALSE,FALSE
1,1,learned,144,4,7,5,2,5,5,TRUE,2001.2000016868112,2,4,2,2,FALSE,FALSE
1,1,learned,145,4,8,3,6,3,3,TRUE,2200.100000947714,4,7,4,3,FALSE,FALSE
1,1,learned,146,3,10,4,5,4,5,FALSE,1668.1999992579222,5,6,5,4,FALSE,FALSE
1,1,learned,147,5,1,4,7,4,4,TRUE,7512.499999254942,3,5,3,3,FALSE,FALSE
1,1,learned,148,1,9,8,2,8,8,TRUE,2877.800000831485,2,NA,2,2,TRUE,FALSE
1,1,learned,149,4,10,3,6,3,3,TRUE,1890.3000000864267,5,8,5,4,FALSE,FALSE
1,1,learned,150,5,6,4,7,NA,7,TRUE,2154.2000006884336,2,2,2,2,FALSE,TRUE
1,1,learned,151,4,8,2,6,2,6,FALSE,1516.799999400973,3,7,3,3,FALSE,FALSE
1,1,learned,152,11,1,12,13,12,13,FALSE,1817.2999992966652,4,5,4,3,FALSE,FALSE
1,1,learned,153,3,8,4,5,4,4,TRUE,1971.1999986320736,4,5,4,3,FALSE,FALSE
1,1,learned,154,7,1,5,6,NA,6,TRUE,3683.4000013768673,4,4,4,4,FALSE,TRUE
1,1,learned,155,3,9,2,4,2,2,TRUE,1659.8999984562397,4,5,4,4,FALSE,FALSE
1,1,learned,156,2,6,4,3,4,4,TRUE,1745.899999514222,2,3,2,2,FALSE,FALSE
1,1,learned,157,3,7,5,2,5,2,FALSE,1739.1999997198582,2,4,2,2,FALSE,FALSE
1,1,learned,158,2,7,3,4,NA,4,TRUE,5878.299999982119,3,3,3,3,FALSE,TRUE
1,1,learned,159,9,4,8,11,8,8,TRUE,2720.0000006705523,4,7,4,4,FALSE,FALSE
1,2,learned,1,10,4,8,12,8,12,FALSE,15041.600000113249,4,7,4,4,FALSE,FALSE
1,2,learned,2,13,1,11,12,NA,11,TRUE,7536.699999123812,4,4,4,4,FALSE,TRUE
1,2,learned,3,12,2,10,13,10,10,TRUE,17346.099998801947,4,6,4,4,FALSE,FALSE
1,2,learned,4,10,3,8,12,8,8,TRUE,7728.199999779463,4,7,4,4,FALSE,FALSE
1,2,learned,5,12,1,11,13,11,11,TRUE,9859.100000932813,4,5,4,3,FALSE,FALSE
1,2,learned,6,4,1,3,6,3,3,TRUE,7808.999998494983,3,6,3,2,FALSE,FALSE
1,2,learned,7,2,8,1,3,1,1,TRUE,6876.499999314547,2,NA,2,2,TRUE,FALSE
1,2,learned,8,2,12,1,4,1,1,TRUE,13168.199999257922,4,NA,4,4,TRUE,FALSE
1,2,learned,9,11,10,9,13,NA,13,TRUE,30619.400000199676,3,3,3,2,FALSE,TRUE
1,2,learned,10,11,2,9,13,9,9,TRUE,4161.199999973178,4,6,4,4,FALSE,FALSE
1,2,learned,11,3,8,2,5,2,5,FALSE,17375.699998810887,3,5,3,3,FALSE,FALSE
1,2,learned,12,4,8,2,5,2,2,TRUE,9240.199999883773,3,5,3,3,FALSE,FALSE
1,2,learned,13,4,8,5,6,5,5,TRUE,8019.700000062585,5,7,5,3,FALSE,FALSE
1,2,learned,14,4,7,3,2,3,3,TRUE,4732.200000435114,3,4,3,2,FALSE,FALSE
1,2,learned,15,11,1,9,12,9,9,TRUE,15361.7000002414,3,4,3,3,FALSE,FALSE
1,2,learned,16,11,1,12,13,12,12,TRUE,11202.800000086429,4,5,4,3,FALSE,FALSE
1,2,learned,17,1,9,8,2,8,8,TRUE,6245.600000023842,2,NA,2,2,TRUE,FALSE
1,2,learned,18,9,4,8,11,8,8,TRUE,6933.599999174476,4,7,4,4,FALSE,FALSE
1,2,learned,19,13,10,12,11,12,12,TRUE,3482.400000095367,2,3,2,2,FALSE,FALSE
1,2,learned,20,1,5,2,8,2,2,TRUE,9236.099999397991,3,NA,3,3,TRUE,FALSE
1,2,learned,21,11,10,12,9,12,12,TRUE,6428.50000038743,2,3,2,2,FALSE,FALSE
1,2,learned,22,12,8,10,11,10,10,TRUE,2441.2999991327524,2,3,2,2,FALSE,FALSE
1,2,learned,23,3,10,4,5,4,5,FALSE,17786.199999973178,5,6,5,4,FALSE,FALSE
1,2,learned,24,12,2,11,13,11,11,TRUE,8446.399999782443,5,6,5,4,FALSE,FALSE
1,2,learned,25,3,10,2,4,2,4,FALSE,6937.599999830127,4,5,4,4,FALSE,FALSE
1,2,learned,26,4,10,2,5,2,2,TRUE,7361.300000920892,4,6,4,4,FALSE,FALSE
1,2,learned,27,5,6,7,3,7,7,TRUE,2748.3999989926815,2,3,2,2,FALSE,FALSE
1,2,learned,28,12,8,10,13,10,10,TRUE,2745.100000873208,2,4,2,2,FALSE,FALSE
1,2,learned,29,8,5,1,10,1,1,TRUE,4641.200000420213,4,NA,4,4,TRUE,FALSE
1,2,learned,30,2,5,4,1,4,1,FALSE,5351.9999999552965,2,NA,2,2,TRUE,FALSE
1,2,learned,31,8,3,1,10,1,1,TRUE,6834.300000220537,3,NA,3,3,TRUE,FALSE
1,2,learned,32,2,7,3,1,3,3,TRUE,5491.100000217557,3,NA,3,3,TRUE,FALSE
1,2,learned,33,12,1,10,11,10,10,TRUE,8369.799999520183,3,4,3,3,FALSE,FALSE
1,2,learned,34,6,2,4,7,4,4,TRUE,11979.100000113249,2,4,2,2,FALSE,FALSE
1,2,learned,35,5,1,3,7,3,3,TRUE,10776.899999007584,3,5,3,3,FALSE,FALSE
1,2,learned,36,4,9,2,5,2,2,TRUE,15729.100000113249,4,6,4,4,FALSE,FALSE
1,2,learned,37,3,8,2,4,2,2,TRUE,3178.599998354912,3,4,3,3,FALSE,FALSE
1,2,learned,38,10,9,8,12,8,8,TRUE,7106.599999591708,2,3,2,2,FALSE,FALSE
1,2,learned,39,8,12,10,9,10,10,TRUE,3839.9000000208616,2,3,2,2,FALSE,FALSE
1,2,learned,40,5,8,3,7,3,3,TRUE,6482.300000265241,4,6,4,4,FALSE,FALSE
1,2,learned,41,3,6,2,5,NA,5,TRUE,4854.399999603629,3,3,3,2,FALSE,TRUE
1,2,learned,42,1,13,8,2,8,8,TRUE,5366.399999707937,4,NA,4,4,TRUE,FALSE
1,2,learned,43,2,11,1,4,1,1,TRUE,6457.100000232458,4,NA,4,4,TRUE,FALSE
1,2,learned,44,8,5,1,9,1,1,TRUE,4554.499998688698,4,NA,4,4,TRUE,FALSE
1,2,learned,45,2,5,3,4,NA,4,TRUE,11908.600000664592,2,2,2,2,FALSE,TRUE
1,2,learned,46,5,6,4,7,NA,7,TRUE,4993.200000375509,2,2,2,2,FALSE,TRUE
1,2,learned,47,4,9,3,6,3,3,TRUE,8733.40000025928,5,8,5,4,FALSE,FALSE
1,2,learned,48,9,3,8,11,8,8,TRUE,4448.499999940395,4,7,4,4,FALSE,FALSE
1,2,learned,49,4,9,5,6,5,5,TRUE,3058.499999344349,6,8,6,4,FALSE,FALSE
1,2,learned,50,4,7,6,3,6,6,TRUE,3293.4999987483025,2,3,2,2,FALSE,FALSE
1,2,learned,51,4,10,3,5,3,3,TRUE,2740.2999997138977,5,6,5,4,FALSE,FALSE
1,2,learned,52,3,9,2,5,2,2,TRUE,3931.29999935627,4,6,4,4,FALSE,FALSE
1,2,learned,53,9,2,8,11,8,8,TRUE,6109.300000593066,3,6,3,3,FALSE,FALSE
1,2,learned,54,11,2,9,12,9,9,TRUE,2875.900000333786,4,5,4,4,FALSE,FALSE
1,2,learned,55,7,4,5,6,NA,5,TRUE,2377.299999818206,2,2,2,2,FALSE,TRUE
1,2,learned,56,3,6,4,2,4,4,TRUE,5264.399999752641,2,3,2,2,FALSE,FALSE
1,2,learned,57,7,3,5,6,5,5,TRUE,6944.899998605251,2,3,2,2,FALSE,FALSE
1,2,learned,58,6,8,4,7,4,4,TRUE,980.0000004470348,4,6,4,4,FALSE,FALSE
1,2,learned,59,4,7,5,3,5,3,FALSE,459.5999997109175,2,3,2,2,FALSE,FALSE
1,2,learned,60,9,1,8,11,8,11,FALSE,259.50000062584877,2,5,2,2,FALSE,FALSE
1,2,learned,61,3,7,4,2,4,2,FALSE,489.3999993801117,3,4,3,2,FALSE,FALSE
1,2,learned,62,8,3,1,9,1,1,TRUE,597.2000006586313,3,NA,3,3,TRUE,FALSE
1,2,learned,63,4,1,2,3,2,2,TRUE,326.79999992251396,2,3,2,2,FALSE,FALSE
1,2,learned,64,4,9,2,6,2,2,TRUE,527.2000003606081,4,8,4,4,FALSE,FALSE
1,2,learned,65,6,5,4,7,NA,7,TRUE,547.3999995738268,2,2,2,2,FALSE,TRUE
1,2,learned,66,5,2,3,4,NA,4,TRUE,384.3000009655953,2,2,2,2,FALSE,TRUE
1,2,learned,67,8,11,10,1,10,10,TRUE,455.60000091791153,3,NA,3,2,TRUE,FALSE
1,2,learned,68,10,2,8,12,8,12,FALSE,336.1000008881092,3,6,3,3,FALSE,FALSE
1,2,learned,69,7,2,5,6,NA,6,TRUE,364.19999971985817,3,3,3,3,FALSE,TRUE
1,2,learned,70,8,4,1,9,1,9,FALSE,393.2000007480383,3,NA,3,3,TRUE,FALSE
1,2,learned,71,2,6,4,1,4,1,FALSE,278.30000035464764,2,NA,2,2,TRUE,FALSE
1,2,learned,72,8,12,9,1,9,1,FALSE,343.80000084638596,3,NA,3,2,TRUE,FALSE
1,2,learned,73,4,8,3,5,3,3,TRUE,265.2000002563,4,5,4,3,FALSE,FALSE
1,2,learned,74,9,10,8,11,8,11,FALSE,500.1000016927719,2,3,2,2,FALSE,FALSE
1,2,learned,75,11,8,9,13,9,9,TRUE,456.50000125169754,2,4,2,2,FALSE,FALSE
1,2,learned,76,10,13,12,8,12,8,FALSE,289.40000012516975,2,4,2,2,FALSE,FALSE
1,2,learned,77,3,9,2,4,2,4,FALSE,1979.399999603629,4,5,4,4,FALSE,FALSE
1,2,learned,78,4,1,2,6,2,6,FALSE,1326.1999990791082,2,6,2,2,FALSE,FALSE
1,2,learned,79,9,13,11,8,11,8,FALSE,1211.2999986857176,2,4,2,2,FALSE,FALSE
1,2,learned,80,4,1,5,6,5,6,FALSE,678.999999538064,4,6,4,2,FALSE,FALSE
1,2,learned,81,2,5,3,1,3,3,TRUE,496.4000005275011,2,NA,2,2,TRUE,FALSE
1,2,learned,82,5,2,3,7,3,7,FALSE,424.3000000715256,2,4,2,2,FALSE,FALSE
1,2,learned,83,5,8,3,4,NA,3,TRUE,425.30000023543835,4,4,4,4,FALSE,TRUE
1,2,learned,84,2,12,1,3,1,3,FALSE,521.2000012397766,4,NA,4,4,TRUE,FALSE
1,2,learned,85,4,7,6,2,6,2,FALSE,649.100000038743,2,4,2,2,FALSE,FALSE
1,2,learned,86,8,6,1,10,1,1,TRUE,368.300000205636,4,NA,4,4,TRUE,FALSE
1,2,learned,87,1,12,8,2,8,2,FALSE,320.49999944865704,3,NA,3,3,TRUE,FALSE
1,2,learned,88,5,8,4,7,4,7,FALSE,364.2000015825033,4,6,4,4,FALSE,FALSE
1,2,learned,89,4,10,5,6,5,6,FALSE,448.4000001102686,6,8,6,4,FALSE,FALSE
1,2,learned,90,10,1,8,12,8,12,FALSE,2415.999999269843,2,5,2,2,FALSE,FALSE
1,2,learned,91,4,1,3,5,3,3,TRUE,1937.8000013530257,3,4,3,2,FALSE,FALSE
1,2,learned,92,3,6,4,5,4,4,TRUE,444.3999994546175,2,3,2,2,FALSE,FALSE
1,2,learned,93,3,7,5,2,5,5,TRUE,476.40000097453594,2,4,2,2,FALSE,FALSE
1,2,learned,94,3,1,4,5,4,4,TRUE,433.10000002384186,3,4,3,2,FALSE,FALSE
1,2,learned,95,9,12,11,8,11,11,TRUE,417.29999892413616,2,3,2,2,FALSE,FALSE
1,2,learned,96,1,4,2,8,2,2,TRUE,308.10000002384186,2,NA,2,2,TRUE,FALSE
1,2,learned,97,5,6,4,3,4,3,FALSE,438.3000005036593,2,3,2,2,FALSE,FALSE
1,2,learned,98,4,8,2,6,2,2,TRUE,312.3000003397465,3,7,3,3,FALSE,FALSE
1,2,learned,99,3,1,2,4,2,4,FALSE,434.10000018775463,2,3,2,2,FALSE,FALSE
1,2,learned,100,4,8,2,3,2,3,FALSE,524.100000038743,3,4,3,3,FALSE,FALSE
1,2,learned,101,8,4,1,10,1,10,FALSE,512.2999995946884,3,NA,3,3,TRUE,FALSE
1,2,learned,102,13,8,11,12,NA,11,TRUE,4950.600000098348,3,3,3,3,FALSE,TRUE
1,2,learned,103,11,1,9,13,9,9,TRUE,5344.200000166893,3,5,3,3,FALSE,FALSE
1,2,learned,104,3,10,2,5,2,2,TRUE,2484.1999989002943,4,6,4,4,FALSE,FALSE
1,2,learned,105,12,9,10,13,NA,10,TRUE,659.3999993056059,3,3,3,2,FALSE,TRUE
1,2,learned,106,11,10,12,13,12,13,FALSE,644.7999998927116,2,3,2,2,FALSE,FALSE
1,2,learned,107,7,1,5,6,NA,6,TRUE,499.7000005096197,4,4,4,4,FALSE,TRUE
1,2,learned,108,8,13,9,1,9,1,FALSE,438.6999998241663,3,NA,3,3,TRUE,FALSE
1,2,learned,109,2,9,1,3,1,3,FALSE,483.2000005990267,3,NA,3,3,TRUE,FALSE
1,2,learned,110,4,10,2,6,2,2,TRUE,209.2000003904104,4,8,4,4,FALSE,FALSE
1,2,learned,111,3,8,4,5,4,5,FALSE,183.29999968409535,4,5,4,3,FALSE,FALSE
1,2,learned,112,4,8,3,6,3,6,FALSE,356.3000001013279,4,7,4,3,FALSE,FALSE
1,2,learned,113,12,1,10,13,10,10,TRUE,48.19999821484089,3,5,3,3,FALSE,FALSE
1,2,learned,114,2,6,3,1,3,3,TRUE,358.09999890625477,3,NA,3,2,TRUE,FALSE
1,2,learned,115,11,8,9,12,9,9,TRUE,397.4000010639429,2,3,2,2,FALSE,FALSE
1,2,learned,116,4,9,3,5,3,3,TRUE,329.19999957084656,5,6,5,4,FALSE,FALSE
1,2,learned,117,2,10,1,3,1,3,FALSE,200.10000094771385,3,NA,3,3,TRUE,FALSE
1,2,learned,118,2,9,1,4,1,4,FALSE,403.4000001847744,3,NA,3,3,TRUE,FALSE
1,2,learned,119,8,13,10,1,10,1,FALSE,344.29999999701977,3,NA,3,3,TRUE,FALSE
1,2,learned,120,13,9,11,12,11,11,TRUE,235.99999956786633,2,3,2,2,FALSE,FALSE
1,2,learned,121,8,2,1,10,1,1,TRUE,413.399999961257,2,NA,2,2,TRUE,FALSE
1,2,learned,122,4,7,5,6,NA,5,TRUE,363.29999938607216,2,2,2,2,FALSE,TRUE
1,2,learned,123,2,7,4,1,4,1,FALSE,375.0999998301267,3,NA,3,3,TRUE,FALSE
1,2,learned,124,12,8,11,13,11,13,FALSE,294.0999995917082,3,4,3,2,FALSE,FALSE
1,2,learned,125,5,2,4,7,4,4,TRUE,287.2000001370907,2,4,2,2,FALSE,FALSE
1,2,learned,126,1,11,8,2,8,8,TRUE,85.10000072419643,3,NA,3,3,TRUE,FALSE
1,2,learned,127,4,1,2,5,2,2,TRUE,392.2000005841255,2,4,2,2,FALSE,FALSE
1,2,learned,128,12,2,10,11,10,10,TRUE,266.1999985575676,4,5,4,4,FALSE,FALSE
1,2,learned,129,5,1,4,7,4,4,TRUE,380.4000001400709,3,5,3,3,FALSE,FALSE
1,2,learned,130,8,12,10,1,10,10,TRUE,291.8999996036291,2,NA,2,2,TRUE,FALSE
1,2,learned,131,12,9,11,13,11,11,TRUE,361.9999997317791,2,3,2,2,FALSE,FALSE
1,2,learned,132,2,8,1,4,1,1,TRUE,77.99999974668026,2,NA,2,2,TRUE,FALSE
1,2,learned,133,8,6,1,9,1,1,TRUE,593.3999996632338,4,NA,4,4,TRUE,FALSE
1,2,learned,134,1,6,2,8,2,8,FALSE,296.50000110268593,3,NA,3,3,TRUE,FALSE
1,2,learned,135,2,10,1,4,1,4,FALSE,304.2000010609627,3,NA,3,3,TRUE,FALSE
1,2,learned,136,12,9,11,10,11,11,TRUE,1.5999991446733477,2,3,2,2,FALSE,FALSE
1,2,learned,137,5,1,3,4,NA,3,TRUE,87.60000020265579,3,3,3,3,FALSE,TRUE
1,2,learned,138,8,11,9,10,9,10,FALSE,114.90000039339066,2,3,2,2,FALSE,FALSE
1,2,learned,139,1,10,8,2,8,2,FALSE,381.8999994546175,2,NA,2,2,TRUE,FALSE
1,2,learned,140,11,8,12,13,12,12,TRUE,1.3999994844198227,3,4,3,2,FALSE,FALSE
1,2,learned,141,3,9,4,5,4,5,FALSE,463.8000000268221,5,6,5,4,FALSE,FALSE
1,2,learned,142,6,3,4,7,4,4,TRUE,973.3999986201524,2,3,2,2,FALSE,FALSE
1,2,learned,143,8,11,9,1,9,1,FALSE,587.7999998629093,2,NA,2,2,TRUE,FALSE
1,2,learned,144,2,6,4,3,4,4,TRUE,424.39999990165234,2,3,2,2,FALSE,FALSE
1,2,learned,145,4,9,2,3,2,3,FALSE,635.0999996066093,4,5,4,4,FALSE,FALSE
1,2,learned,146,11,2,12,13,12,12,TRUE,367.59999953210354,5,6,5,4,FALSE,FALSE
1,2,learned,147,1,3,2,8,2,8,FALSE,393.0999990552664,2,NA,2,2,TRUE,FALSE
1,2,learned,148,3,7,5,4,5,5,TRUE,350.29999911785126,2,3,2,2,FALSE,FALSE
1,2,learned,149,4,7,5,2,5,5,TRUE,307.0000000298023,2,4,2,2,FALSE,FALSE
1,2,learned,150,1,7,2,8,2,8,FALSE,281.19999915361404,4,NA,4,4,TRUE,FALSE
1,2,learned,151,10,11,12,8,12,12,TRUE,1858.399998396635,2,3,2,2,FALSE,FALSE
1,2,learned,152,3,1,2,5,2,5,FALSE,2301.300000399351,2,4,2,2,FALSE,FALSE
1,2,learned,153,4,10,2,3,2,3,FALSE,875,4,5,4,4,FALSE,FALSE
1,2,learned,154,4,10,3,6,3,3,TRUE,850.3000009804964,5,8,5,4,FALSE,FALSE
1,2,learned,155,8,2,1,9,1,1,TRUE,3250.399999320507,2,NA,2,2,TRUE,FALSE
1,2,learned,156,2,11,1,3,1,1,TRUE,1295.8000004291534,4,NA,4,4,TRUE,FALSE
1,2,learned,157,2,7,3,4,NA,4,TRUE,798.1000002473593,3,3,3,3,FALSE,TRUE
1,2,learned,158,8,13,9,10,NA,10,TRUE,2885.9000001102686,3,3,3,3,FALSE,TRUE
1,2,learned,159,6,1,4,7,4,7,FALSE,1549.100000411272,3,5,3,3,FALSE,FALSE
1,3,learned,1,8,6,1,9,1,1,TRUE,8711.899999529123,4,NA,4,4,TRUE,FALSE
1,3,learned,2,8,12,10,1,10,10,TRUE,7895.100001245737,2,NA,2,2,TRUE,FALSE
1,3,learned,3,7,2,5,6,NA,6,TRUE,10915.300000458956,3,3,3,3,FALSE,TRUE
1,3,learned,4,1,11,8,2,8,2,FALSE,31903.499998152256,3,NA,3,3,TRUE,FALSE
1,3,learned,5,3,10,4,5,4,4,TRUE,6897.399999201298,5,6,5,4,FALSE,FALSE
1,3,learned,6,12,2,10,11,10,11,FALSE,33870.60000002384,4,5,4,4,FALSE,FALSE
1,3,learned,7,11,8,12,13,12,12,TRUE,27589.00000154972,3,4,3,2,FALSE,FALSE
1,3,learned,8,4,8,2,3,2,2,TRUE,7525.400001555681,3,4,3,3,FALSE,FALSE
1,3,learned,9,2,6,4,3,4,4,TRUE,14013.299997895956,2,3,2,2,FALSE,FALSE
1,3,learned,10,13,1,11,12,NA,11,TRUE,23534.80000048876,4,4,4,4,FALSE,TRUE
1,3,learned,11,7,4,5,6,NA,5,TRUE,11207.999996840954,2,2,2,2,FALSE,TRUE
1,3,learned,12,12,8,11,13,11,11,TRUE,19250.299997627735,3,4,3,2,FALSE,FALSE
1,3,learned,13,11,1,9,13,9,9,TRUE,24499.699998646975,3,5,3,3,FALSE,FALSE
1,3,learned,14,12,8,10,11,10,10,TRUE,4491.900000721216,2,3,2,2,FALSE,FALSE
1,3,learned,15,4,10,2,5,2,2,TRUE,18199.699997901917,4,6,4,4,FALSE,FALSE
1,3,learned,16,1,5,2,8,2,2,TRUE,21523.400001227856,3,NA,3,3,TRUE,FALSE
1,3,learned,17,12,1,11,13,11,11,TRUE,20600.600000470877,4,5,4,3,FALSE,FALSE
1,3,learned,18,8,11,9,10,9,9,TRUE,9533.900000154972,2,3,2,2,FALSE,FALSE
1,3,learned,19,4,1,5,6,5,5,TRUE,22400.699999183416,4,6,4,2,FALSE,FALSE
1,3,learned,20,4,1,2,5,2,2,TRUE,4144.199997186661,2,4,2,2,FALSE,FALSE
1,3,learned,21,4,7,5,6,NA,6,TRUE,12781.799998134376,2,2,2,2,FALSE,TRUE
1,3,learned,22,5,6,4,7,NA,4,TRUE,19908.500000834465,2,2,2,2,FALSE,TRUE
1,3,learned,23,11,8,9,13,9,9,TRUE,15513.199999928474,2,4,2,2,FALSE,FALSE
1,3,learned,24,12,9,11,10,11,10,FALSE,14735.100001096724,2,3,2,2,FALSE,FALSE
1,3,learned,25,4,1,2,6,2,2,TRUE,3334.1000005602837,2,6,2,2,FALSE,FALSE
1,3,learned,26,2,11,1,4,1,4,FALSE,30410.50000116229,4,NA,4,4,TRUE,FALSE
1,3,learned,27,2,6,4,1,4,4,TRUE,6471.600003540516,2,NA,2,2,TRUE,FALSE
1,3,learned,28,2,5,4,1,4,4,TRUE,4589.499998837709,2,NA,2,2,TRUE,FALSE
1,3,learned,29,5,6,4,3,4,4,TRUE,3961.8000015616417,2,3,2,2,FALSE,FALSE
1,3,learned,30,8,11,9,1,9,9,TRUE,10027.800001204014,2,NA,2,2,TRUE,FALSE
1,3,learned,31,9,10,8,11,8,8,TRUE,8622.699998319149,2,3,2,2,FALSE,FALSE
1,3,learned,32,2,12,1,3,1,1,TRUE,20799.399998039007,4,NA,4,4,TRUE,FALSE
1,3,learned,33,8,11,10,1,10,10,TRUE,38794.99999806285,3,NA,3,2,TRUE,FALSE
1,3,learned,34,12,8,10,13,10,10,TRUE,6758.799999952316,2,4,2,2,FALSE,FALSE
1,3,learned,35,3,1,2,5,2,2,TRUE,4228.59999909997,2,4,2,2,FALSE,FALSE
1,3,learned,36,1,10,8,2,8,8,TRUE,2682.599999010563,2,NA,2,2,TRUE,FALSE
1,3,learned,37,5,1,4,7,4,4,TRUE,9041.499998420475,3,5,3,3,FALSE,FALSE
1,3,learned,38,10,3,8,12,8,8,TRUE,16442.09999963641,4,7,4,4,FALSE,FALSE
1,3,learned,39,12,2,11,13,11,11,TRUE,16954.799998551607,5,6,5,4,FALSE,FALSE
1,3,learned,40,11,1,9,12,9,9,TRUE,8877.700001001358,3,4,3,3,FALSE,FALSE
1,3,learned,41,4,10,3,6,3,3,TRUE,19434.999998658895,5,8,5,4,FALSE,FALSE
1,3,learned,42,11,10,12,13,12,12,TRUE,5890.799999237061,2,3,2,2,FALSE,FALSE
1,3,learned,43,2,7,3,1,3,3,TRUE,16717.699997127056,3,NA,3,3,TRUE,FALSE
1,3,learned,44,8,2,1,10,1,1,TRUE,14831.59999921918,2,NA,2,2,TRUE,FALSE
1,3,learned,45,10,4,8,12,8,12,FALSE,43205.00000193715,4,7,4,4,FALSE,FALSE
1,3,learned,46,10,1,8,12,8,8,TRUE,2991.900000721216,2,5,2,2,FALSE,FALSE
1,3,learned,47,8,5,1,9,1,9,FALSE,34242.69999936223,4,NA,4,4,TRUE,FALSE
1,3,learned,48,12,9,11,13,11,11,TRUE,4774.699997156858,2,3,2,2,FALSE,FALSE
1,3,learned,49,4,10,2,3,2,2,TRUE,7057.500001043081,4,5,4,4,FALSE,FALSE
1,3,learned,50,9,2,8,11,8,8,TRUE,4513.799998909235,3,6,3,3,FALSE,FALSE
1,3,learned,51,11,2,9,12,9,12,FALSE,21030.90000152588,4,5,4,4,FALSE,FALSE
1,3,learned,52,3,7,5,4,5,5,TRUE,4150.199998170137,2,3,2,2,FALSE,FALSE
1,3,learned,53,4,1,2,3,2,2,TRUE,1579.2999975383282,2,3,2,2,FALSE,FALSE
1,3,learned,54,9,12,11,8,11,11,TRUE,2160.199999809265,2,3,2,2,FALSE,FALSE
1,3,learned,55,3,9,4,5,4,4,TRUE,17152.59999781847,5,6,5,4,FALSE,FALSE
1,3,learned,56,11,2,12,13,12,12,TRUE,13201.999999582767,5,6,5,4,FALSE,FALSE
1,3,learned,57,8,12,9,1,9,9,TRUE,14615.799997001886,3,NA,3,2,TRUE,FALSE
1,3,learned,58,10,9,8,12,8,8,TRUE,10478.60000282526,2,3,2,2,FALSE,FALSE
1,3,learned,59,1,3,2,8,2,2,TRUE,2933.4000013768673,2,NA,2,2,TRUE,FALSE
1,3,learned,60,9,4,8,11,8,11,FALSE,22425.499998033047,4,7,4,4,FALSE,FALSE
1,3,learned,61,3,8,2,4,2,2,TRUE,10063.00000101328,3,4,3,3,FALSE,FALSE
1,3,learned,62,6,1,4,7,4,4,TRUE,11556.200001388788,3,5,3,3,FALSE,FALSE
1,3,learned,63,2,10,1,3,1,1,TRUE,7171.100001782179,3,NA,3,3,TRUE,FALSE
1,3,learned,64,10,2,8,12,8,8,TRUE,11627.599999308586,3,6,3,3,FALSE,FALSE
1,3,learned,65,8,13,9,1,9,9,TRUE,20943.19999963045,3,NA,3,3,TRUE,FALSE
1,3,learned,66,4,9,2,5,2,2,TRUE,14998.100001364946,4,6,4,4,FALSE,FALSE
1,3,learned,67,5,2,3,7,3,3,TRUE,3391.8999992311,2,4,2,2,FALSE,FALSE
1,3,learned,68,2,7,3,4,NA,3,TRUE,14039.499998092651,3,3,3,3,FALSE,TRUE
1,3,learned,69,12,1,10,11,10,10,TRUE,6937.3000003397465,3,4,3,3,FALSE,FALSE
1,3,learned,70,1,13,8,2,8,2,FALSE,28455.49999922514,4,NA,4,4,TRUE,FALSE
1,3,learned,71,11,10,12,9,12,12,TRUE,2577.3999989032745,2,3,2,2,FALSE,FALSE
1,3,learned,72,11,10,9,13,NA,9,TRUE,37215.70000052452,3,3,3,2,FALSE,TRUE
1,3,learned,73,2,8,1,4,1,1,TRUE,4271.900001913309,2,NA,2,2,TRUE,FALSE
1,3,learned,74,5,6,7,3,7,7,TRUE,6596.400000154972,2,3,2,2,FALSE,FALSE
1,3,learned,75,3,6,4,5,4,4,TRUE,3783.099997788668,2,3,2,2,FALSE,FALSE
1,3,learned,76,4,7,3,2,3,3,TRUE,15755.499999970198,3,4,3,2,FALSE,FALSE
1,3,learned,77,13,10,12,11,12,12,TRUE,4921.000000089407,2,3,2,2,FALSE,FALSE
1,3,learned,78,7,3,5,6,5,5,TRUE,1120.2999986708164,2,3,2,2,FALSE,FALSE
1,3,learned,79,3,7,4,2,4,4,TRUE,7925.599999725819,3,4,3,2,FALSE,FALSE
1,3,learned,80,2,9,1,4,1,1,TRUE,15896.39999717474,3,NA,3,3,TRUE,FALSE
1,3,learned,81,11,8,9,12,9,9,TRUE,4103.900000452995,2,3,2,2,FALSE,FALSE
1,3,learned,82,9,1,8,11,8,8,TRUE,2146.2000012397766,2,5,2,2,FALSE,FALSE
1,3,learned,83,11,1,12,13,12,13,FALSE,12580.49999922514,4,5,4,3,FALSE,FALSE
1,3,learned,84,4,10,5,6,5,6,FALSE,15523.800000548365,6,8,6,4,FALSE,FALSE
1,3,learned,85,4,7,6,2,6,6,TRUE,3230.9999987483025,2,4,2,2,FALSE,FALSE
1,3,learned,86,4,7,5,2,5,5,TRUE,1816.200003027916,2,4,2,2,FALSE,FALSE
1,3,learned,87,8,12,10,9,10,10,TRUE,2527.1000005304813,2,3,2,2,FALSE,FALSE
1,3,learned,88,8,13,9,10,NA,9,TRUE,10279.599998146296,3,3,3,3,FALSE,TRUE
1,3,learned,89,11,2,9,13,9,13,FALSE,28690.999999642372,4,6,4,4,FALSE,FALSE
1,3,learned,90,4,8,5,6,5,6,FALSE,18272.300001233816,5,7,5,3,FALSE,FALSE
1,3,learned,91,2,5,3,1,3,3,TRUE,2754.2000003159046,2,NA,2,2,TRUE,FALSE
1,3,learned,92,4,9,3,5,3,5,FALSE,6183.499999344349,5,6,5,4,FALSE,FALSE
1,3,learned,93,12,9,10,13,NA,10,TRUE,2997.900001704693,3,3,3,2,FALSE,TRUE
1,3,learned,94,4,9,3,6,3,6,FALSE,10328.199997544289,5,8,5,4,FALSE,FALSE
1,3,learned,95,4,9,5,6,5,5,TRUE,10114.399999380112,6,8,6,4,FALSE,FALSE
1,3,learned,96,12,2,10,13,10,10,TRUE,34354.60000112653,4,6,4,4,FALSE,FALSE
1,3,learned,97,2,7,4,1,4,4,TRUE,9238.800000399351,3,NA,3,3,TRUE,FALSE
1,3,learned,98,2,9,1,3,1,1,TRUE,10243.499998003244,3,NA,3,3,TRUE,FALSE
1,3,learned,99,3,1,4,5,4,4,TRUE,13827.600002288818,3,4,3,2,FALSE,FALSE
1,3,learned,100,1,12,8,2,8,8,TRUE,10258.799999952316,3,NA,3,3,TRUE,FALSE
1,3,learned,101,4,9,2,6,2,2,TRUE,10746.800001710651,4,8,4,4,FALSE,FALSE
1,3,learned,102,3,7,5,2,5,5,TRUE,5305.799998342991,2,4,2,2,FALSE,FALSE
1,3,learned,103,12,1,10,13,10,10,TRUE,7618.400000035763,3,5,3,3,FALSE,FALSE
1,3,learned,104,4,7,5,3,5,5,TRUE,3082.700002938509,2,3,2,2,FALSE,FALSE
1,3,learned,105,1,7,2,8,2,2,TRUE,10332.299999892712,4,NA,4,4,TRUE,FALSE
1,3,learned,106,8,4,1,9,1,1,TRUE,9563.69999796152,3,NA,3,3,TRUE,FALSE
1,3,learned,107,8,3,1,10,1,1,TRUE,5157.700002193451,3,NA,3,3,TRUE,FALSE
1,3,learned,108,8,6,1,10,1,1,TRUE,16068.70000064373,4,NA,4,4,TRUE,FALSE
1,3,learned,109,3,10,2,4,2,2,TRUE,5324.89999756217,4,5,4,4,FALSE,FALSE
1,3,learned,110,6,8,4,7,4,4,TRUE,19365.600001066923,4,6,4,4,FALSE,FALSE
1,3,learned,111,3,6,4,2,4,4,TRUE,3007.599998265505,2,3,2,2,FALSE,FALSE
1,3,learned,112,7,1,5,6,NA,5,TRUE,15559.500001370909,4,4,4,4,FALSE,TRUE
1,3,learned,113,5,8,4,7,4,4,TRUE,16476.600002497435,4,6,4,4,FALSE,FALSE
1,3,learned,114,4,8,3,6,3,3,TRUE,18328.60000059009,4,7,4,3,FALSE,FALSE
1,3,learned,115,4,8,2,6,2,2,TRUE,2772.1000015735626,3,7,3,3,FALSE,FALSE
1,3,learned,116,3,9,2,4,2,2,TRUE,8156.399998813868,4,5,4,4,FALSE,FALSE
1,3,learned,117,13,9,11,12,11,11,TRUE,2004.5999996364117,2,3,2,2,FALSE,FALSE
1,3,learned,118,10,13,12,8,12,12,TRUE,1445.3999996185305,2,4,2,2,FALSE,FALSE
1,3,learned,119,3,8,2,5,2,2,TRUE,1598.200000822544,3,5,3,3,FALSE,FALSE
1,3,learned,120,9,3,8,11,8,11,FALSE,9360.500000417233,4,7,4,4,FALSE,FALSE
1,3,learned,121,4,8,2,5,2,2,TRUE,12364.700000733135,3,5,3,3,FALSE,FALSE
1,3,learned,122,13,8,11,12,NA,12,TRUE,4218.700002878904,3,3,3,3,FALSE,TRUE
1,3,learned,123,3,10,2,5,2,2,TRUE,4873.3999989926815,4,6,4,4,FALSE,FALSE
1,3,learned,124,2,6,3,1,3,3,TRUE,4477.999996393919,3,NA,3,2,TRUE,FALSE
1,3,learned,125,5,8,3,7,3,3,TRUE,38326.20000094175,4,6,4,4,FALSE,FALSE
1,3,learned,126,4,10,2,6,2,2,TRUE,5400.800000876188,4,8,4,4,FALSE,FALSE
1,3,learned,127,8,4,1,10,1,1,TRUE,8047.000002115965,3,NA,3,3,TRUE,FALSE
1,3,learned,128,2,10,1,4,1,1,TRUE,10718.600001186132,3,NA,3,3,TRUE,FALSE
1,3,learned,129,4,1,3,6,3,3,TRUE,17248.3000010252,3,6,3,2,FALSE,FALSE
1,3,learned,130,8,2,1,9,1,1,TRUE,4966.6999988257885,2,NA,2,2,TRUE,FALSE
1,3,learned,131,5,2,4,7,4,4,TRUE,3367.1000003814697,2,4,2,2,FALSE,FALSE
1,3,learned,132,6,2,4,7,4,4,TRUE,3348.2999987900257,2,4,2,2,FALSE,FALSE
1,3,learned,133,3,6,2,5,NA,5,TRUE,34410.799998790026,3,3,3,2,FALSE,TRUE
1,3,learned,134,5,2,3,4,NA,4,TRUE,1921.4999973773956,2,2,2,2,FALSE,TRUE
1,3,learned,135,5,1,3,7,3,3,TRUE,5093.199998140335,3,5,3,3,FALSE,FALSE
1,3,learned,136,2,8,1,3,1,1,TRUE,2608.1000007689,2,NA,2,2,TRUE,FALSE
1,3,learned,137,1,9,8,2,8,8,TRUE,1589.0000015497208,2,NA,2,2,TRUE,FALSE
1,3,learned,138,3,9,2,5,2,5,FALSE,8267.400000244379,4,6,4,4,FALSE,FALSE
1,3,learned,139,4,9,2,3,2,2,TRUE,3557.9000003635883,4,5,4,4,FALSE,FALSE
1,3,learned,140,1,4,2,8,2,2,TRUE,2540.0000028312206,2,NA,2,2,TRUE,FALSE
1,3,learned,141,3,8,4,5,4,4,TRUE,12489.599999040363,4,5,4,3,FALSE,FALSE
1,3,learned,142,3,1,2,4,2,2,TRUE,2326.2000009417534,2,3,2,2,FALSE,FALSE
1,3,learned,143,2,11,1,3,1,3,FALSE,10109.000001102686,4,NA,4,4,TRUE,FALSE
1,3,learned,144,6,3,4,7,4,4,TRUE,2340.199999511242,2,3,2,2,FALSE,FALSE
1,3,learned,145,4,10,3,5,3,5,FALSE,11073.499999940395,5,6,5,4,FALSE,FALSE
1,3,learned,146,10,11,12,8,12,12,TRUE,2624.099999666214,2,3,2,2,FALSE,FALSE
1,3,learned,147,1,6,2,8,2,2,TRUE,3004.100002348423,3,NA,3,3,TRUE,FALSE
1,3,learned,148,8,5,1,10,1,10,FALSE,14758.299998939036,4,NA,4,4,TRUE,FALSE
1,3,learned,149,5,8,3,4,NA,4,TRUE,3835.4000002145767,4,4,4,4,FALSE,TRUE
1,3,learned,150,2,5,3,4,NA,3,TRUE,2724.10000115633,2,2,2,2,FALSE,TRUE
1,3,learned,151,4,1,3,5,3,3,TRUE,7762.899998575449,3,4,3,2,FALSE,FALSE
1,3,learned,152,6,5,4,7,NA,4,TRUE,616.2999980151653,2,2,2,2,FALSE,TRUE
1,3,learned,153,8,3,1,9,1,9,FALSE,626.0999999940395,3,NA,3,3,TRUE,FALSE
1,3,learned,154,8,13,10,1,10,10,TRUE,1070.300001651049,3,NA,3,3,TRUE,FALSE
1,3,learned,155,4,7,6,3,6,3,FALSE,721.2999984622002,2,3,2,2,FALSE,FALSE
1,3,learned,156,5,1,3,4,NA,4,TRUE,531.1000011861324,3,3,3,3,FALSE,TRUE
1,3,learned,157,2,12,1,4,1,4,FALSE,484.20000076293945,4,NA,4,4,TRUE,FALSE
1,3,learned,158,4,8,3,5,3,3,TRUE,429.9999997019768,4,5,4,3,FALSE,FALSE
1,3,learned,159,9,13,11,8,11,11,TRUE,383.2000009715557,2,4,2,2,FALSE,FALSE
1,4,learned,1,3,1,4,5,4,4,TRUE,17709.600001573563,3,4,3,2,FALSE,FALSE
1,4,learned,2,3,10,2,5,2,5,FALSE,13650.999996811152,4,6,4,4,FALSE,FALSE
1,4,learned,3,4,10,5,6,5,5,TRUE,6996.899999678135,6,8,6,4,FALSE,FALSE
1,4,learned,4,5,6,4,3,4,4,TRUE,3425.2000004053116,2,3,2,2,FALSE,FALSE
1,4,learned,5,3,8,2,4,2,2,TRUE,8414.799999445677,3,4,3,3,FALSE,FALSE
1,4,learned,6,6,5,4,7,NA,4,TRUE,5923.600003123283,2,2,2,2,FALSE,TRUE
1,4,learned,7,2,6,4,1,4,1,FALSE,5101.90000012517,2,NA,2,2,TRUE,FALSE
1,4,learned,8,3,10,4,5,4,4,TRUE,8156.999997794628,5,6,5,4,FALSE,FALSE
1,4,learned,9,4,8,2,6,2,2,TRUE,19600.600000470877,3,7,3,3,FALSE,FALSE
1,4,learned,10,12,1,10,13,10,13,FALSE,7860.89999973774,3,5,3,3,FALSE,FALSE
1,4,learned,11,5,1,3,7,3,3,TRUE,8932.39999935031,3,5,3,3,FALSE,FALSE
1,4,learned,12,4,8,5,6,5,5,TRUE,7785.999998450279,5,7,5,3,FALSE,FALSE
1,4,learned,13,11,1,12,13,12,12,TRUE,5981.600001454353,4,5,4,3,FALSE,FALSE
1,4,learned,14,4,10,3,5,3,3,TRUE,14792.499996721745,5,6,5,4,FALSE,FALSE
1,4,learned,15,2,5,4,1,4,4,TRUE,6486.600000411272,2,NA,2,2,TRUE,FALSE
1,4,learned,16,3,1,2,5,2,2,TRUE,9543.39999705553,2,4,2,2,FALSE,FALSE
1,4,learned,17,8,5,1,10,1,10,FALSE,10414.40000012517,4,NA,4,4,TRUE,FALSE
1,4,learned,18,1,3,2,8,2,2,TRUE,5837.799999862909,2,NA,2,2,TRUE,FALSE
1,4,learned,19,11,8,9,13,9,9,TRUE,10773.59999716282,2,4,2,2,FALSE,FALSE
1,4,learned,20,3,9,2,4,2,2,TRUE,9766.30000025034,4,5,4,4,FALSE,FALSE
1,4,learned,21,4,1,2,5,2,2,TRUE,3145.499996840954,2,4,2,2,FALSE,FALSE
1,4,learned,22,4,7,5,6,NA,6,TRUE,5563.100002706051,2,2,2,2,FALSE,TRUE
1,4,learned,23,8,12,10,9,10,10,TRUE,5824.799999594688,2,3,2,2,FALSE,FALSE
1,4,learned,24,7,2,5,6,NA,6,TRUE,5039.099998772144,3,3,3,3,FALSE,TRUE
1,4,learned,25,1,7,2,8,2,2,TRUE,6577.7000002563,4,NA,4,4,TRUE,FALSE
1,4,learned,26,10,3,8,12,8,12,FALSE,14236.299999058248,4,7,4,4,FALSE,FALSE
1,4,learned,27,12,1,10,11,10,10,TRUE,10178.799998015164,3,4,3,3,FALSE,FALSE
1,4,learned,28,3,6,4,5,4,5,FALSE,8509.299997240305,2,3,2,2,FALSE,FALSE
1,4,learned,29,8,2,1,9,1,1,TRUE,2762.1999979019165,2,NA,2,2,TRUE,FALSE
1,4,learned,30,8,4,1,9,1,9,FALSE,4131.000000983477,3,NA,3,3,TRUE,FALSE
1,4,learned,31,2,12,1,3,1,1,TRUE,15603.300001472237,4,NA,4,4,TRUE,FALSE
1,4,learned,32,8,11,9,1,9,9,TRUE,5594.0000005066395,2,NA,2,2,TRUE,FALSE
1,4,learned,33,4,1,5,6,5,5,TRUE,9184.500001370909,4,6,4,2,FALSE,FALSE
1,4,learned,34,2,6,4,3,4,4,TRUE,4831.700000911951,2,3,2,2,FALSE,FALSE
1,4,learned,35,9,4,8,11,8,11,FALSE,9255.300000309944,4,7,4,4,FALSE,FALSE
1,4,learned,36,2,9,1,3,1,1,TRUE,9354.80000078678,3,NA,3,3,TRUE,FALSE
1,4,learned,37,3,6,4,2,4,4,TRUE,12484.499998390676,2,3,2,2,FALSE,FALSE
1,4,learned,38,2,8,1,4,1,1,TRUE,5604.800000786781,2,NA,2,2,TRUE,FALSE
1,4,learned,39,12,8,11,13,11,11,TRUE,6848.600000143051,3,4,3,2,FALSE,FALSE
1,4,learned,40,5,8,4,7,4,4,TRUE,2808.600001037121,4,6,4,4,FALSE,FALSE
1,4,learned,41,5,1,4,7,4,4,TRUE,3490.2999997138977,3,5,3,3,FALSE,FALSE
1,4,learned,42,2,7,3,1,3,3,TRUE,2456.599999219179,3,NA,3,3,TRUE,FALSE
1,4,learned,43,4,1,3,6,3,3,TRUE,3884.5999985933304,3,6,3,2,FALSE,FALSE
1,4,learned,44,9,1,8,11,8,8,TRUE,4108.1999987363815,2,5,2,2,FALSE,FALSE
1,4,learned,45,7,3,5,6,5,5,TRUE,5483.799997717142,2,3,2,2,FALSE,FALSE
1,4,learned,46,11,2,9,13,9,9,TRUE,7138.799998909235,4,6,4,4,FALSE,FALSE
1,4,learned,47,4,8,3,5,3,5,FALSE,7609.999999403954,4,5,4,3,FALSE,FALSE
1,4,learned,48,6,8,4,7,4,4,TRUE,9436.499997973442,4,6,4,4,FALSE,FALSE
1,4,learned,49,10,1,8,12,8,8,TRUE,4048.599999397993,2,5,2,2,FALSE,FALSE
1,4,learned,50,3,9,2,5,2,2,TRUE,12638.399999588728,4,6,4,4,FALSE,FALSE
1,4,learned,51,9,10,8,11,8,8,TRUE,4519.999999552965,2,3,2,2,FALSE,FALSE
1,4,learned,52,4,8,2,3,2,2,TRUE,6148.299999535084,3,4,3,3,FALSE,FALSE
1,4,learned,53,1,6,2,8,2,2,TRUE,4219.5999994874,3,NA,3,3,TRUE,FALSE
1,4,learned,54,12,2,10,11,10,11,FALSE,4875.599998980761,4,5,4,4,FALSE,FALSE
1,4,learned,55,11,8,12,13,12,12,TRUE,5669.900000095367,3,4,3,2,FALSE,FALSE
1,4,learned,56,2,8,1,3,1,1,TRUE,5092.600002884865,2,NA,2,2,TRUE,FALSE
1,4,learned,57,3,7,4,2,4,4,TRUE,4243.900001049042,3,4,3,2,FALSE,FALSE
1,4,learned,58,5,6,7,3,7,7,TRUE,8159.7000025212765,2,3,2,2,FALSE,FALSE
1,4,learned,59,4,7,6,2,6,6,TRUE,4990.499999374151,2,4,2,2,FALSE,FALSE
1,4,learned,60,11,10,12,13,12,12,TRUE,4537.000000476837,2,3,2,2,FALSE,FALSE
1,4,learned,61,8,6,1,9,1,9,FALSE,6359.499998390675,4,NA,4,4,TRUE,FALSE
1,4,learned,62,13,8,11,12,NA,12,TRUE,6528.500001877546,3,3,3,3,FALSE,TRUE
1,4,learned,63,10,11,12,8,12,12,TRUE,5357.199996709824,2,3,2,2,FALSE,FALSE
1,4,learned,64,1,13,8,2,8,2,FALSE,6401.200000196695,4,NA,4,4,TRUE,FALSE
1,4,learned,65,3,6,2,5,NA,5,TRUE,9882.500000298023,3,3,3,2,FALSE,TRUE
1,4,learned,66,5,2,3,4,NA,4,TRUE,4762.200001627207,2,2,2,2,FALSE,TRUE
1,4,learned,67,10,9,8,12,8,8,TRUE,3072.0000006258488,2,3,2,2,FALSE,FALSE
1,4,learned,68,1,5,2,8,2,2,TRUE,3677.200000733137,3,NA,3,3,TRUE,FALSE
1,4,learned,69,5,2,3,7,3,3,TRUE,4536.399997770786,2,4,2,2,FALSE,FALSE
1,4,learned,70,3,8,4,5,4,4,TRUE,4065.6999982893462,4,5,4,3,FALSE,FALSE
1,4,learned,71,4,1,2,3,2,2,TRUE,4509.300000965595,2,3,2,2,FALSE,FALSE
1,4,learned,72,12,1,11,13,11,11,TRUE,4598.400000482798,4,5,4,3,FALSE,FALSE
1,4,learned,73,4,1,2,6,2,2,TRUE,3790.5000001192097,2,6,2,2,FALSE,FALSE
1,4,learned,74,5,2,4,7,4,4,TRUE,2912.2000001370907,2,4,2,2,FALSE,FALSE
1,4,learned,75,8,11,10,1,10,10,TRUE,5971.200000494719,3,NA,3,2,TRUE,FALSE
1,4,learned,76,4,9,5,6,5,5,TRUE,5816.099997609854,6,8,6,4,FALSE,FALSE
1,4,learned,77,11,10,12,9,12,12,TRUE,5664.099998772144,2,3,2,2,FALSE,FALSE
1,4,learned,78,8,3,1,9,1,9,FALSE,3816.1999993026257,3,NA,3,3,TRUE,FALSE
1,4,learned,79,8,4,1,10,1,10,FALSE,4349.899999797344,3,NA,3,3,TRUE,FALSE
1,4,learned,80,4,7,5,2,5,5,TRUE,5544.400002807379,2,4,2,2,FALSE,FALSE
1,4,learned,81,12,2,11,13,11,11,TRUE,3782.6999984681606,5,6,5,4,FALSE,FALSE
1,4,learned,82,9,3,8,11,8,11,FALSE,7177.499998360872,4,7,4,4,FALSE,FALSE
1,4,learned,83,3,1,2,4,2,2,TRUE,4100.20000115037,2,3,2,2,FALSE,FALSE
1,4,learned,84,4,10,2,5,2,5,FALSE,6370.000001043081,4,6,4,4,FALSE,FALSE
1,4,learned,85,4,10,3,6,3,3,TRUE,4832.800000905991,5,8,5,4,FALSE,FALSE
1,4,learned,86,4,9,2,3,2,3,FALSE,4553.100001066923,4,5,4,4,FALSE,FALSE
1,4,learned,87,6,1,4,7,4,4,TRUE,3313.900001347065,3,5,3,3,FALSE,FALSE
1,4,learned,88,13,9,11,12,11,11,TRUE,6996.6000020504,2,3,2,2,FALSE,FALSE
1,4,learned,89,5,8,3,7,3,3,TRUE,3703.0000016093254,4,6,4,4,FALSE,FALSE
1,4,learned,90,4,1,3,5,3,5,FALSE,8591.19999781251,3,4,3,2,FALSE,FALSE
1,4,learned,91,1,11,8,2,8,2,FALSE,8805.300001055002,3,NA,3,3,TRUE,FALSE
1,4,learned,92,1,12,8,2,8,2,FALSE,5628.100000321865,3,NA,3,3,TRUE,FALSE
1,4,learned,93,4,10,2,3,2,2,TRUE,8171.400003135204,4,5,4,4,FALSE,FALSE
1,4,learned,94,11,8,9,12,9,9,TRUE,5756.799999624491,2,3,2,2,FALSE,FALSE
1,4,learned,95,12,8,10,13,10,10,TRUE,2890.2000002563,2,4,2,2,FALSE,FALSE
1,4,learned,96,12,9,11,13,11,11,TRUE,3428.099997341633,2,3,2,2,FALSE,FALSE
1,4,learned,97,4,8,2,5,2,2,TRUE,3461.199998855591,3,5,3,3,FALSE,FALSE
1,4,learned,98,7,4,5,6,NA,5,TRUE,5200.300000607967,2,2,2,2,FALSE,TRUE
1,4,learned,99,10,4,8,12,8,12,FALSE,9833.500001579525,4,7,4,4,FALSE,FALSE
1,4,learned,100,4,7,6,3,6,6,TRUE,4455.599997192621,2,3,2,2,FALSE,FALSE
1,4,learned,101,3,8,2,5,2,2,TRUE,2307.199999690056,3,5,3,3,FALSE,FALSE
1,4,learned,102,8,13,9,10,NA,10,TRUE,4898.499999195337,3,3,3,3,FALSE,TRUE
1,4,learned,103,8,13,9,1,9,9,TRUE,10161.900002509356,3,NA,3,3,TRUE,FALSE
1,4,learned,104,8,12,9,1,9,9,TRUE,3365.6999990344048,3,NA,3,2,TRUE,FALSE
1,4,learned,105,2,11,1,4,1,4,FALSE,7712.29999884963,4,NA,4,4,TRUE,FALSE
1,4,learned,106,12,9,10,13,NA,10,TRUE,4807.99999833107,3,3,3,2,FALSE,TRUE
1,4,learned,107,6,3,4,7,4,4,TRUE,3367.400001734495,2,3,2,2,FALSE,FALSE
1,4,learned,108,1,9,8,2,8,8,TRUE,3263.1999999284744,2,NA,2,2,TRUE,FALSE
1,4,learned,109,4,9,3,6,3,3,TRUE,6560.4999996721745,5,8,5,4,FALSE,FALSE
1,4,learned,110,8,5,1,9,1,9,FALSE,3887.199997901917,4,NA,4,4,TRUE,FALSE
1,4,learned,111,2,5,3,1,3,3,TRUE,7046.1999997496605,2,NA,2,2,TRUE,FALSE
1,4,learned,112,2,11,1,3,1,3,FALSE,2564.400002360344,4,NA,4,4,TRUE,FALSE
1,4,learned,113,11,1,9,13,9,9,TRUE,3265.5000016093254,3,5,3,3,FALSE,FALSE
1,4,learned,114,2,12,1,4,1,4,FALSE,4564.1999989748,4,NA,4,4,TRUE,FALSE
1,4,learned,115,4,9,2,5,2,5,FALSE,5202.400002628565,4,6,4,4,FALSE,FALSE
1,4,learned,116,12,9,11,10,11,10,FALSE,3520.7000002264977,2,3,2,2,FALSE,FALSE
1,4,learned,117,3,7,5,4,5,5,TRUE,10245.200000703337,2,3,2,2,FALSE,FALSE
1,4,learned,118,4,8,3,6,3,3,TRUE,3475.9999997913837,4,7,4,3,FALSE,FALSE
1,4,learned,119,8,12,10,1,10,10,TRUE,5309.899996966124,2,NA,2,2,TRUE,FALSE
1,4,learned,120,6,2,4,7,4,7,FALSE,4780.200000852346,2,4,2,2,FALSE,FALSE
1,4,learned,121,1,4,2,8,2,2,TRUE,4032.2999991476536,2,NA,2,2,TRUE,FALSE
1,4,learned,122,10,13,12,8,12,12,TRUE,1961.1999988555908,2,4,2,2,FALSE,FALSE
1,4,learned,123,8,3,1,10,1,10,FALSE,4269.999999552965,3,NA,3,3,TRUE,FALSE
1,4,learned,124,8,13,10,1,10,10,TRUE,4231.600001454353,3,NA,3,3,TRUE,FALSE
1,4,learned,125,3,7,5,2,5,5,TRUE,9027.300000190737,2,4,2,2,FALSE,FALSE
1,4,learned,126,2,6,3,1,3,3,TRUE,3527.300000190735,3,NA,3,2,TRUE,FALSE
1,4,learned,127,4,7,3,2,3,2,FALSE,2844.1000021994114,3,4,3,2,FALSE,FALSE
1,4,learned,128,3,9,4,5,4,5,FALSE,4871.399998664856,5,6,5,4,FALSE,FALSE
1,4,learned,129,9,13,11,8,11,11,TRUE,2618.6000034213066,2,4,2,2,FALSE,FALSE
1,4,learned,130,4,10,2,6,2,2,TRUE,4052.000001072883,4,8,4,4,FALSE,FALSE
1,4,learned,131,9,2,8,11,8,11,FALSE,3066.500000655651,3,6,3,3,FALSE,FALSE
1,4,learned,132,8,6,1,10,1,10,FALSE,5673.39999973774,4,NA,4,4,TRUE,FALSE
1,4,learned,133,3,10,2,4,2,4,FALSE,4386.899996548891,4,5,4,4,FALSE,FALSE
1,4,learned,134,2,5,3,4,NA,3,TRUE,6290.900003165007,2,2,2,2,FALSE,TRUE
1,4,learned,135,12,2,10,13,10,10,TRUE,3117.499999701977,4,6,4,4,FALSE,FALSE
1,4,learned,136,10,2,8,12,8,12,FALSE,5442.7000023424625,3,6,3,3,FALSE,FALSE
1,4,learned,137,13,10,12,11,12,12,TRUE,6477.399997413158,2,3,2,2,FALSE,FALSE
1,4,learned,138,5,1,3,4,NA,4,TRUE,4444.099999964237,3,3,3,3,FALSE,TRUE
1,4,learned,139,5,6,4,7,NA,7,TRUE,2317.0999996364117,2,2,2,2,FALSE,TRUE
1,4,learned,140,11,10,9,13,NA,9,TRUE,9016.400001943111,3,3,3,2,FALSE,TRUE
1,4,learned,141,11,2,12,13,12,12,TRUE,4233.899999409914,5,6,5,4,FALSE,FALSE
1,4,learned,142,12,8,10,11,10,10,TRUE,3055.5000007152557,2,3,2,2,FALSE,FALSE
1,4,learned,143,4,9,2,6,2,2,TRUE,5234.400000423193,4,8,4,4,FALSE,FALSE
1,4,learned,144,2,9,1,4,1,4,FALSE,4104.200001806021,3,NA,3,3,TRUE,FALSE
1,4,learned,145,7,1,5,6,NA,5,TRUE,7556.30000308156,4,4,4,4,FALSE,TRUE
1,4,learned,146,8,2,1,10,1,1,TRUE,2797.1000000834465,2,NA,2,2,TRUE,FALSE
1,4,learned,147,2,7,4,1,4,4,TRUE,2157.6999984681606,3,NA,3,3,TRUE,FALSE
1,4,learned,148,2,10,1,3,1,3,FALSE,3371.100001037121,3,NA,3,3,TRUE,FALSE
1,4,learned,149,4,9,3,5,3,5,FALSE,2427.9000014066696,5,6,5,4,FALSE,FALSE
1,4,learned,150,2,7,3,4,NA,3,TRUE,4181.099999696016,3,3,3,3,FALSE,TRUE
1,4,learned,151,4,7,5,3,5,5,TRUE,2352.3999974131584,2,3,2,2,FALSE,FALSE
1,4,learned,152,5,8,3,4,NA,4,TRUE,2629.2999982833862,4,4,4,4,FALSE,TRUE
1,4,learned,153,2,10,1,4,1,4,FALSE,2795.099999755621,3,NA,3,3,TRUE,FALSE
1,4,learned,154,11,2,9,12,9,9,TRUE,3967.199999839067,4,5,4,4,FALSE,FALSE
1,4,learned,155,8,11,9,10,9,9,TRUE,4184.399999678135,2,3,2,2,FALSE,FALSE
1,4,learned,156,1,10,8,2,8,8,TRUE,4801.000002771616,2,NA,2,2,TRUE,FALSE
1,4,learned,157,9,12,11,8,11,11,TRUE,3602.0999997854233,2,3,2,2,FALSE,FALSE
1,4,learned,158,11,1,9,12,9,9,TRUE,10357.400000095367,3,4,3,3,FALSE,FALSE
1,4,learned,159,13,1,11,12,NA,11,TRUE,4471.900001168251,4,4,4,4,FALSE,TRUE
1,5,learned,1,3,8,2,4,2,2,TRUE,7234.2000007629395,3,4,3,3,FALSE,FALSE
1,5,learned,2,8,13,10,1,10,10,TRUE,8732.999999076128,3,NA,3,3,TRUE,FALSE
1,5,learned,3,10,11,12,8,12,12,TRUE,4503.099996596575,2,3,2,2,FALSE,FALSE
1,5,learned,4,5,2,4,7,4,7,FALSE,16358.200002461672,2,4,2,2,FALSE,FALSE
1,5,learned,5,2,9,1,4,1,4,FALSE,5106.699999421835,3,NA,3,3,TRUE,FALSE
1,5,learned,6,3,6,2,5,NA,2,TRUE,3439.400002360344,3,3,3,2,FALSE,TRUE
1,5,learned,7,4,10,3,5,3,5,FALSE,5933.1999979913235,5,6,5,4,FALSE,FALSE
1,5,learned,8,11,1,9,13,9,9,TRUE,3507.200002670288,3,5,3,3,FALSE,FALSE
1,5,learned,9,2,7,4,1,4,1,FALSE,5109.0999990701675,3,NA,3,3,TRUE,FALSE
1,5,learned,10,1,3,2,8,2,8,FALSE,6922.500003129244,2,NA,2,2,TRUE,FALSE
1,5,learned,11,2,8,1,4,1,1,TRUE,13928.300000727177,2,NA,2,2,TRUE,FALSE
1,5,learned,12,8,6,1,9,1,9,FALSE,5000.799998641014,4,NA,4,4,TRUE,FALSE
1,5,learned,13,12,9,10,13,NA,10,TRUE,8518.799997866154,3,3,3,2,FALSE,TRUE
1,5,learned,14,8,13,9,10,NA,10,TRUE,4374.600000679493,3,3,3,3,FALSE,TRUE
1,5,learned,15,3,7,5,4,5,5,TRUE,3720.9000028669834,2,3,2,2,FALSE,FALSE
1,5,learned,16,2,7,3,4,NA,4,TRUE,9609.099999070168,3,3,3,3,FALSE,TRUE
1,5,learned,17,2,5,4,1,4,1,FALSE,2852.0000018179417,2,NA,2,2,TRUE,FALSE
1,5,learned,18,3,10,4,5,4,4,TRUE,5837.499998509884,5,6,5,4,FALSE,FALSE
1,5,learned,19,10,3,8,12,8,8,TRUE,7512.6999989151955,4,7,4,4,FALSE,FALSE
1,5,learned,20,3,9,2,4,2,2,TRUE,2480.000000447035,4,5,4,4,FALSE,FALSE
1,5,learned,21,8,12,9,1,9,1,FALSE,14320.90000063181,3,NA,3,2,TRUE,FALSE
1,5,learned,22,7,4,5,6,NA,5,TRUE,4624.200001358986,2,2,2,2,FALSE,TRUE
1,5,learned,23,2,8,1,3,1,3,FALSE,6381.400000303984,2,NA,2,2,TRUE,FALSE
1,5,learned,24,7,3,5,6,5,6,FALSE,3656.300000846386,2,3,2,2,FALSE,FALSE
1,5,learned,25,8,11,9,10,9,10,FALSE,6596.599999815226,2,3,2,2,FALSE,FALSE
1,5,learned,26,12,1,10,11,10,10,TRUE,2390.1000022888184,3,4,3,3,FALSE,FALSE
1,5,learned,27,6,3,4,7,4,4,TRUE,5272.199999541044,2,3,2,2,FALSE,FALSE
1,5,learned,28,4,7,3,2,3,2,FALSE,8067.800000309944,3,4,3,2,FALSE,FALSE
1,5,learned,29,7,1,5,6,NA,5,TRUE,13293.30000281334,4,4,4,4,FALSE,TRUE
1,5,learned,30,4,9,2,3,2,2,TRUE,6210.200000554323,4,5,4,4,FALSE,FALSE
1,5,learned,31,11,10,9,13,NA,13,TRUE,3521.800000220537,3,3,3,2,FALSE,TRUE
1,5,learned,32,9,1,8,11,8,11,FALSE,3065.9000016748905,2,5,2,2,FALSE,FALSE
1,5,learned,33,8,3,1,9,1,1,TRUE,8061.499997973442,3,NA,3,3,TRUE,FALSE
1,5,learned,34,5,1,3,7,3,3,TRUE,17389.199998229742,3,5,3,3,FALSE,FALSE
1,5,learned,35,4,10,2,3,2,2,TRUE,2661.6999991238117,4,5,4,4,FALSE,FALSE
1,5,learned,36,1,7,2,8,2,2,TRUE,3396.299999207258,4,NA,4,4,TRUE,FALSE
1,5,learned,37,11,8,12,13,12,13,FALSE,3442.299999296665,3,4,3,2,FALSE,FALSE
1,5,learned,38,8,4,1,9,1,1,TRUE,5315.499998629093,3,NA,3,3,TRUE,FALSE
1,5,learned,39,1,13,8,2,8,8,TRUE,3740.2999997138977,4,NA,4,4,TRUE,FALSE
1,5,learned,40,11,10,12,13,12,13,FALSE,3320.3000016510487,2,3,2,2,FALSE,FALSE
1,5,learned,41,2,6,3,1,3,3,TRUE,5672.899998724461,3,NA,3,2,TRUE,FALSE
1,5,learned,42,12,8,11,13,11,13,FALSE,3135.300002992153,3,4,3,2,FALSE,FALSE
1,5,learned,43,1,4,2,8,2,2,TRUE,7832.399997860193,2,NA,2,2,TRUE,FALSE
1,5,learned,44,4,9,3,6,3,3,TRUE,4540.699999779463,5,8,5,4,FALSE,FALSE
1,5,learned,45,11,8,9,13,9,13,FALSE,4249.400001019239,2,4,2,2,FALSE,FALSE
1,5,learned,46,4,10,3,6,3,6,FALSE,5882.500000298023,5,8,5,4,FALSE,FALSE
1,5,learned,47,10,4,8,12,8,8,TRUE,3388.1999999284744,4,7,4,4,FALSE,FALSE
1,5,learned,48,4,1,2,5,2,5,FALSE,3593.800000846386,2,4,2,2,FALSE,FALSE
1,5,learned,49,10,9,8,12,8,12,FALSE,11343.799997121096,2,3,2,2,FALSE,FALSE
1,5,learned,50,6,1,4,7,4,4,TRUE,3822.300001978874,3,5,3,3,FALSE,FALSE
1,5,learned,51,11,2,9,12,9,12,FALSE,4942.400000989437,4,5,4,4,FALSE,FALSE
1,5,learned,52,4,7,5,6,NA,5,TRUE,23231.49999976158,2,2,2,2,FALSE,TRUE
1,5,learned,53,11,10,12,9,12,12,TRUE,6615.100000053644,2,3,2,2,FALSE,FALSE
1,5,learned,54,9,10,8,11,8,8,TRUE,3036.5000031888485,2,3,2,2,FALSE,FALSE
1,5,learned,55,13,9,11,12,11,11,TRUE,3813.299998641014,2,3,2,2,FALSE,FALSE
1,5,learned,56,4,8,5,6,5,5,TRUE,1826.2000009417536,5,7,5,3,FALSE,FALSE
1,5,learned,57,5,6,7,3,7,7,TRUE,4295.2999994158745,2,3,2,2,FALSE,FALSE
1,5,learned,58,10,13,12,8,12,8,FALSE,2867.899999022484,2,4,2,2,FALSE,FALSE
1,5,learned,59,5,1,3,4,NA,4,TRUE,8357.50000178814,3,3,3,3,FALSE,TRUE
1,5,learned,60,9,4,8,11,8,11,FALSE,9860.39999872446,4,7,4,4,FALSE,FALSE
1,5,learned,61,3,8,4,5,4,4,TRUE,4611.4000007510185,4,5,4,3,FALSE,FALSE
1,5,learned,62,2,5,3,1,3,1,FALSE,5002.5000013411045,2,NA,2,2,TRUE,FALSE
1,5,learned,63,3,7,5,2,5,5,TRUE,5105.900000780821,2,4,2,2,FALSE,FALSE
1,5,learned,64,3,1,4,5,4,4,TRUE,6605.599999427795,3,4,3,2,FALSE,FALSE
1,5,learned,65,8,2,1,10,1,10,FALSE,4563.799999654293,2,NA,2,2,TRUE,FALSE
1,5,learned,66,8,2,1,9,1,1,TRUE,3890.0000005960464,2,NA,2,2,TRUE,FALSE
1,5,learned,67,4,1,5,6,5,6,FALSE,6294.199999421835,4,6,4,2,FALSE,FALSE
1,5,learned,68,4,1,3,5,3,5,FALSE,4304.899998009205,3,4,3,2,FALSE,FALSE
1,5,learned,69,4,9,2,6,2,2,TRUE,6776.399999856949,4,8,4,4,FALSE,FALSE
1,5,learned,70,6,5,4,7,NA,4,TRUE,6055.999998003244,2,2,2,2,FALSE,TRUE
1,5,learned,71,8,4,1,10,1,1,TRUE,5453.4000009298325,3,NA,3,3,TRUE,FALSE
1,5,learned,72,5,1,4,7,4,4,TRUE,6412.999998778105,3,5,3,3,FALSE,FALSE
1,5,learned,73,3,6,4,2,4,4,TRUE,6497.19999730587,2,3,2,2,FALSE,FALSE
1,5,learned,74,4,9,5,6,5,5,TRUE,9830.49999922514,6,8,6,4,FALSE,FALSE
1,5,learned,75,3,7,4,2,4,2,FALSE,8317.200001329184,3,4,3,2,FALSE,FALSE
1,5,learned,76,1,11,8,2,8,8,TRUE,14654.699999839067,3,NA,3,3,TRUE,FALSE
1,5,learned,77,5,8,3,7,3,3,TRUE,4337.099999189377,4,6,4,4,FALSE,FALSE
1,5,learned,78,8,11,10,1,10,1,FALSE,6031.5000005066395,3,NA,3,2,TRUE,FALSE
1,5,learned,79,6,8,4,7,4,4,TRUE,7595.599997788668,4,6,4,4,FALSE,FALSE
1,5,learned,80,11,1,9,12,9,12,FALSE,4188.500002026558,3,4,3,3,FALSE,FALSE
1,5,learned,81,4,10,5,6,5,6,FALSE,3336.100000888109,6,8,6,4,FALSE,FALSE
1,5,learned,82,2,12,1,3,1,1,TRUE,7531.499996781349,4,NA,4,4,TRUE,FALSE
1,5,learned,83,13,1,11,12,NA,12,TRUE,3599.600002169609,4,4,4,4,FALSE,TRUE
1,5,learned,84,2,10,1,3,1,3,FALSE,6444.299999624491,3,NA,3,3,TRUE,FALSE
1,5,learned,85,1,5,2,8,2,8,FALSE,5897.199999541044,3,NA,3,3,TRUE,FALSE
1,5,learned,86,4,8,2,5,2,5,FALSE,1578.200001269579,3,5,3,3,FALSE,FALSE
1,5,learned,87,5,8,3,4,NA,3,TRUE,7741.599999368191,4,4,4,4,FALSE,TRUE
1,5,learned,88,3,8,2,5,2,5,FALSE,3816.5999986231327,3,5,3,3,FALSE,FALSE
1,5,learned,89,8,5,1,10,1,10,FALSE,5640.299998223782,4,NA,4,4,TRUE,FALSE
1,5,learned,90,12,9,11,10,11,10,FALSE,4953.299999237061,2,3,2,2,FALSE,FALSE
1,5,learned,91,2,11,1,3,1,3,FALSE,3131.7999996244907,4,NA,4,4,TRUE,FALSE
1,5,learned,92,2,10,1,4,1,1,TRUE,4001.4999993145466,3,NA,3,3,TRUE,FALSE
1,5,learned,93,4,7,6,3,6,6,TRUE,2449.999999254942,2,3,2,2,FALSE,FALSE
1,5,learned,94,8,6,1,10,1,1,TRUE,6570.499997586012,4,NA,4,4,TRUE,FALSE
1,5,learned,95,8,12,10,9,10,10,TRUE,8527.899999171495,2,3,2,2,FALSE,FALSE
1,5,learned,96,3,1,2,5,2,5,FALSE,6415.600001811981,2,4,2,2,FALSE,FALSE
1,5,learned,97,4,7,5,2,5,2,FALSE,3538.4999997913837,2,4,2,2,FALSE,FALSE
1,5,learned,98,12,8,10,11,10,10,TRUE,4072.2000002861023,2,3,2,2,FALSE,FALSE
1,5,learned,99,2,11,1,4,1,1,TRUE,5711.500000208616,4,NA,4,4,TRUE,FALSE
1,5,learned,100,5,6,4,7,NA,4,TRUE,5333.399999886751,2,2,2,2,FALSE,TRUE
1,5,learned,101,3,9,2,5,2,5,FALSE,6374.699998646975,4,6,4,4,FALSE,FALSE
1,5,learned,102,12,1,10,13,10,10,TRUE,2961.8999995291233,3,5,3,3,FALSE,FALSE
1,5,learned,103,2,6,4,1,4,4,TRUE,4258.99999961257,2,NA,2,2,TRUE,FALSE
1,5,learned,104,8,11,9,1,9,1,FALSE,9827.500000596046,2,NA,2,2,TRUE,FALSE
1,5,learned,105,4,8,2,3,2,3,FALSE,4052.300002425909,3,4,3,3,FALSE,FALSE
1,5,learned,106,3,10,2,4,2,4,FALSE,9102.600000798702,4,5,4,4,FALSE,FALSE
1,5,learned,107,3,6,4,5,4,4,TRUE,5583.599999547005,2,3,2,2,FALSE,FALSE
1,5,learned,108,5,6,4,3,4,4,TRUE,1931.199997663498,2,3,2,2,FALSE,FALSE
1,5,learned,109,11,1,12,13,12,12,TRUE,3586.200002580881,4,5,4,3,FALSE,FALSE
1,5,learned,110,1,6,2,8,2,8,FALSE,4484.699998050928,3,NA,3,3,TRUE,FALSE
1,5,learned,111,12,2,10,13,10,13,FALSE,17317.200001329184,4,6,4,4,FALSE,FALSE
1,5,learned,112,8,12,10,1,10,1,FALSE,2544.5000007748604,2,NA,2,2,TRUE,FALSE
1,5,learned,113,12,2,10,11,10,10,TRUE,2557.300001382828,4,5,4,4,FALSE,FALSE
1,5,learned,114,9,13,11,8,11,8,FALSE,2146.2000012397766,2,4,2,2,FALSE,FALSE
1,5,learned,115,9,2,8,11,8,8,TRUE,1520.200002938509,3,6,3,3,FALSE,FALSE
1,5,learned,116,11,2,12,13,12,13,FALSE,1704.2999975383282,5,6,5,4,FALSE,FALSE
1,5,learned,117,2,5,3,4,NA,4,TRUE,5684.200000017881,2,2,2,2,FALSE,TRUE
1,5,learned,118,4,1,2,3,2,2,TRUE,3831.300001591444,2,3,2,2,FALSE,FALSE
1,5,learned,119,10,1,8,12,8,12,FALSE,2490.6999990344048,2,5,2,2,FALSE,FALSE
1,5,learned,120,1,10,8,2,8,2,FALSE,7162.000000476837,2,NA,2,2,TRUE,FALSE
1,5,learned,121,4,9,3,5,3,5,FALSE,13178.200002759697,5,6,5,4,FALSE,FALSE
1,5,learned,122,4,8,3,5,3,5,FALSE,6199.200000613928,4,5,4,3,FALSE,FALSE
1,5,learned,123,5,2,3,4,NA,3,TRUE,4451.300002634525,2,2,2,2,FALSE,TRUE
1,5,learned,124,9,12,11,8,11,11,TRUE,4914.500001817942,2,3,2,2,FALSE,FALSE
1,5,learned,125,13,8,11,12,NA,12,TRUE,6140.300001949072,3,3,3,3,FALSE,TRUE
1,5,learned,126,4,7,5,3,5,3,FALSE,5608.6999997496605,2,3,2,2,FALSE,FALSE
1,5,learned,127,2,7,3,1,3,1,FALSE,4996.500000357628,3,NA,3,3,TRUE,FALSE
1,5,learned,128,4,7,6,2,6,6,TRUE,2523.300003260374,2,4,2,2,FALSE,FALSE
1,5,learned,129,1,12,8,2,8,2,FALSE,3150.6999991834164,3,NA,3,3,TRUE,FALSE
1,5,learned,130,8,5,1,9,1,1,TRUE,4466.299999505281,4,NA,4,4,TRUE,FALSE
1,5,learned,131,3,1,2,4,2,2,TRUE,3890.999998897314,2,3,2,2,FALSE,FALSE
1,5,learned,132,12,9,11,13,11,13,FALSE,12465.500000864267,2,3,2,2,FALSE,FALSE
1,5,learned,133,2,12,1,4,1,1,TRUE,5232.200000435114,4,NA,4,4,TRUE,FALSE
1,5,learned,134,6,2,4,7,4,7,FALSE,5501.499999314547,2,4,2,2,FALSE,FALSE
1,5,learned,135,3,9,4,5,4,4,TRUE,2598.200000822544,5,6,5,4,FALSE,FALSE
1,5,learned,136,12,1,11,13,11,11,TRUE,5898.09999987483,4,5,4,3,FALSE,FALSE
1,5,learned,137,4,8,2,6,2,6,FALSE,3200.3000006079674,3,7,3,3,FALSE,FALSE
1,5,learned,138,4,1,2,6,2,2,TRUE,5302.699998021126,2,6,2,2,FALSE,FALSE
1,5,learned,139,13,10,12,11,12,12,TRUE,1949.099998921156,2,3,2,2,FALSE,FALSE
1,5,learned,140,4,8,3,6,3,6,FALSE,3426.3999983668327,4,7,4,3,FALSE,FALSE
1,5,learned,141,2,6,4,3,4,4,TRUE,3867.3000000417233,2,3,2,2,FALSE,FALSE
1,5,learned,142,4,10,2,5,2,2,TRUE,3553.999997675419,4,6,4,4,FALSE,FALSE
1,5,learned,143,5,2,3,7,3,7,FALSE,3653.5000018775463,2,4,2,2,FALSE,FALSE
1,5,learned,144,11,2,9,13,9,9,TRUE,1740.6999990344048,4,6,4,4,FALSE,FALSE
1,5,learned,145,9,3,8,11,8,8,TRUE,1123.3000010252,4,7,4,4,FALSE,FALSE
1,5,learned,146,5,8,4,7,4,7,FALSE,5575.1999989151955,4,6,4,4,FALSE,FALSE
1,5,learned,147,12,8,10,13,10,13,FALSE,4730.9999987483025,2,4,2,2,FALSE,FALSE
1,5,learned,148,1,9,8,2,8,8,TRUE,15057.100001722574,2,NA,2,2,TRUE,FALSE
1,5,learned,149,3,10,2,5,2,5,FALSE,6193.500000983477,4,6,4,4,FALSE,FALSE
1,5,learned,150,4,9,2,5,2,2,TRUE,2489.199999719858,4,6,4,4,FALSE,FALSE
1,5,learned,151,7,2,5,6,NA,5,TRUE,5977.7999967336655,3,3,3,3,FALSE,TRUE
1,5,learned,152,2,9,1,3,1,3,FALSE,2472.199998795986,3,NA,3,3,TRUE,FALSE
1,5,learned,153,12,2,11,13,11,11,TRUE,6179.499998688698,5,6,5,4,FALSE,FALSE
1,5,learned,154,4,1,3,6,3,6,FALSE,2389.800000935793,3,6,3,2,FALSE,FALSE
1,5,learned,155,8,13,9,1,9,1,FALSE,2859.9999994039536,3,NA,3,3,TRUE,FALSE
1,5,learned,156,4,10,2,6,2,2,TRUE,3047.2999997437,4,8,4,4,FALSE,FALSE
1,5,learned,157,10,2,8,12,8,8,TRUE,2132.900003343821,3,6,3,3,FALSE,FALSE
1,5,learned,158,8,3,1,10,1,1,TRUE,5088.700000196695,3,NA,3,3,TRUE,FALSE
1,5,learned,159,11,8,9,12,9,12,FALSE,2330.2000015974045,2,3,2,2,FALSE,FALSE
1,6,learned,1,3,6,4,2,4,4,TRUE,10117.96000000136,2,3,2,2,FALSE,FALSE
1,6,learned,2,4,7,5,6,NA,5,TRUE,5759.884999999311,2,2,2,2,FALSE,TRUE
1,6,learned,3,8,12,10,9,10,10,TRUE,4763.444999998435,2,3,2,2,FALSE,FALSE
1,6,learned,4,12,1,10,11,10,10,TRUE,4816.940000000875,3,4,3,3,FALSE,FALSE
1,6,learned,5,2,9,1,3,1,1,TRUE,9149.3199999989,3,NA,3,3,TRUE,FALSE
1,6,learned,6,1,5,2,8,2,8,FALSE,11365.78000000026,3,NA,3,3,TRUE,FALSE
1,6,learned,7,4,1,5,6,5,5,TRUE,5901.33000000054,4,6,4,2,FALSE,FALSE
1,6,learned,8,2,9,1,4,1,4,FALSE,9783.030000000726,3,NA,3,3,TRUE,FALSE
1,6,learned,9,11,2,9,13,9,9,TRUE,7255.95500000054,4,6,4,4,FALSE,FALSE
1,6,learned,10,5,1,4,7,4,4,TRUE,9805.38499999931,3,5,3,3,FALSE,FALSE
1,6,learned,11,5,8,4,7,4,7,FALSE,10743.834999999031,4,6,4,4,FALSE,FALSE
1,6,learned,12,6,1,4,7,4,4,TRUE,9297.529999999795,3,5,3,3,FALSE,FALSE
1,6,learned,13,4,10,2,5,2,2,TRUE,16668.26500000013,4,6,4,4,FALSE,FALSE
1,6,learned,14,3,7,5,4,5,4,FALSE,8590.94000000041,2,3,2,2,FALSE,FALSE
1,6,learned,15,2,10,1,4,1,1,TRUE,8754.685000000056,3,NA,3,3,TRUE,FALSE
1,6,learned,16,7,2,5,6,NA,5,TRUE,10421.865000000224,3,3,3,3,FALSE,TRUE
1,6,learned,17,4,9,3,5,3,5,FALSE,9512.82499999972,5,6,5,4,FALSE,FALSE
1,6,learned,18,2,6,4,1,4,4,TRUE,1203.0199999986216,2,NA,2,2,TRUE,FALSE
1,6,learned,19,3,8,4,5,4,5,FALSE,5101.8650000002235,4,5,4,3,FALSE,FALSE
1,6,learned,20,4,9,2,3,2,2,TRUE,13301.864999999758,4,5,4,4,FALSE,FALSE
1,6,learned,21,8,11,10,1,10,10,TRUE,2737.4799999999814,3,NA,3,2,TRUE,FALSE
1,6,learned,22,10,3,8,12,8,8,TRUE,4645.254999999423,4,7,4,4,FALSE,FALSE
1,6,learned,23,11,10,12,9,12,12,TRUE,5920.014999999665,2,3,2,2,FALSE,FALSE
1,6,learned,24,2,7,4,1,4,4,TRUE,4082.589999999851,3,NA,3,3,TRUE,FALSE
1,6,learned,25,4,7,5,2,5,5,TRUE,11808.259999999776,2,4,2,2,FALSE,FALSE
1,6,learned,26,2,5,3,1,3,3,TRUE,6127.010000000242,2,NA,2,2,TRUE,FALSE
1,6,learned,27,8,5,1,10,1,10,FALSE,7630.399999999907,4,NA,4,4,TRUE,FALSE
1,6,learned,28,5,2,4,7,4,7,FALSE,9776.910000000616,2,4,2,2,FALSE,FALSE
1,6,learned,29,2,8,1,4,1,1,TRUE,12463.920000000391,2,NA,2,2,TRUE,FALSE
1,6,learned,30,5,8,3,4,NA,4,TRUE,8626.13499999838,4,4,4,4,FALSE,TRUE
1,6,learned,31,1,6,2,8,2,2,TRUE,5590.359999998473,3,NA,3,3,TRUE,FALSE
1,6,learned,32,11,2,9,12,9,9,TRUE,9050.085000000894,4,5,4,4,FALSE,FALSE
1,6,learned,33,4,10,3,6,3,3,TRUE,7212.26500000013,5,8,5,4,FALSE,FALSE
1,6,learned,34,2,11,1,3,1,3,FALSE,11140.47999999998,4,NA,4,4,TRUE,FALSE
1,6,learned,35,5,1,3,4,NA,4,TRUE,15026.825000000652,3,3,3,3,FALSE,TRUE
1,6,learned,36,3,7,4,2,4,4,TRUE,3729.929999999236,3,4,3,2,FALSE,FALSE
1,6,learned,37,4,8,2,6,2,2,TRUE,12902.935000000056,3,7,3,3,FALSE,FALSE
1,6,learned,38,2,6,4,3,4,4,TRUE,4230.8850000011735,2,3,2,2,FALSE,FALSE
1,6,learned,39,8,3,1,9,1,9,FALSE,5868.550000000745,3,NA,3,3,TRUE,FALSE
1,6,learned,40,10,4,8,12,8,8,TRUE,2584.75,4,7,4,4,FALSE,FALSE
1,6,learned,41,8,6,1,10,1,10,FALSE,1986.3650000002235,4,NA,4,4,TRUE,FALSE
1,6,learned,42,2,6,3,1,3,3,TRUE,4546.860000000801,3,NA,3,2,TRUE,FALSE
1,6,learned,43,2,5,3,4,NA,3,TRUE,4984.739999999758,2,2,2,2,FALSE,TRUE
1,6,learned,44,2,5,4,1,4,4,TRUE,3832.69500000123,2,NA,2,2,TRUE,FALSE
1,6,learned,45,11,8,9,13,9,9,TRUE,2863.574999999255,2,4,2,2,FALSE,FALSE
1,6,learned,46,3,8,2,4,2,4,FALSE,2560.1599999992177,3,4,3,3,FALSE,FALSE
1,6,learned,47,2,8,1,3,1,1,TRUE,5458.23499999987,2,NA,2,2,TRUE,FALSE
1,6,learned,48,12,9,11,13,11,11,TRUE,7253.950000000652,2,3,2,2,FALSE,FALSE
1,6,learned,49,7,1,5,6,NA,5,TRUE,1467.5600000009872,4,4,4,4,FALSE,TRUE
1,6,learned,50,12,8,10,13,10,10,TRUE,3125.870000000112,2,4,2,2,FALSE,FALSE
1,6,learned,51,10,13,12,8,12,12,TRUE,1433.480000000447,2,4,2,2,FALSE,FALSE
1,6,learned,52,3,1,4,5,4,4,TRUE,6658.479999999516,3,4,3,2,FALSE,FALSE
1,6,learned,53,1,7,2,8,2,2,TRUE,6907.834999999963,4,NA,4,4,TRUE,FALSE
1,6,learned,54,13,9,11,12,11,11,TRUE,2811.1549999993294,2,3,2,2,FALSE,FALSE
1,6,learned,55,10,9,8,12,8,8,TRUE,4006.729999998584,2,3,2,2,FALSE,FALSE
1,6,learned,56,2,12,1,4,1,4,FALSE,2049.6100000003353,4,NA,4,4,TRUE,FALSE
1,6,learned,57,8,4,1,10,1,10,FALSE,4909.659999999218,3,NA,3,3,TRUE,FALSE
1,6,learned,58,3,9,2,4,2,4,FALSE,10006.084999999031,4,5,4,4,FALSE,FALSE
1,6,learned,59,3,1,2,4,2,2,TRUE,2650.4150000000373,2,3,2,2,FALSE,FALSE
1,6,learned,60,12,9,11,10,11,11,TRUE,3075.089999999851,2,3,2,2,FALSE,FALSE
1,6,learned,61,3,10,2,5,2,5,FALSE,9631.584999999031,4,6,4,4,FALSE,FALSE
1,6,learned,62,4,7,6,3,6,6,TRUE,2681.894999999553,2,3,2,2,FALSE,FALSE
1,6,learned,63,13,10,12,11,12,12,TRUE,7258.049999999814,2,3,2,2,FALSE,FALSE
1,6,learned,64,11,8,9,12,9,9,TRUE,4805.520000000484,2,3,2,2,FALSE,FALSE
1,6,learned,65,3,8,2,5,2,5,FALSE,3629.294999998994,3,5,3,3,FALSE,FALSE
1,6,learned,66,8,2,1,9,1,1,TRUE,3747.9049999993294,2,NA,2,2,TRUE,FALSE
1,6,learned,67,3,10,2,4,2,4,FALSE,3751.06500000041,4,5,4,4,FALSE,FALSE
1,6,learned,68,5,8,3,7,3,3,TRUE,9365.645000001416,4,6,4,4,FALSE,FALSE
1,6,learned,69,6,3,4,7,4,4,TRUE,17170.875000001863,2,3,2,2,FALSE,FALSE
1,6,learned,70,9,1,8,11,8,8,TRUE,4349.514999999665,2,5,2,2,FALSE,FALSE
1,6,learned,71,1,11,8,2,8,2,FALSE,8694.28500000108,3,NA,3,3,TRUE,FALSE
1,6,learned,72,12,9,10,13,NA,10,TRUE,6365.355000000447,3,3,3,2,FALSE,TRUE
1,6,learned,73,9,13,11,8,11,11,TRUE,6729.620000000112,2,4,2,2,FALSE,FALSE
1,6,learned,74,4,10,2,6,2,2,TRUE,20772.179999999706,4,8,4,4,FALSE,FALSE
1,6,learned,75,1,12,8,2,8,2,FALSE,10643.564999999478,3,NA,3,3,TRUE,FALSE
1,6,learned,76,6,2,4,7,4,4,TRUE,3646.914999999106,2,4,2,2,FALSE,FALSE
1,6,learned,77,8,13,9,1,9,9,TRUE,3633.395000000484,3,NA,3,3,TRUE,FALSE
1,6,learned,78,4,10,2,3,2,3,FALSE,4658.054999999702,4,5,4,4,FALSE,FALSE
1,6,learned,79,12,1,11,13,11,11,TRUE,1589.195000000298,4,5,4,3,FALSE,FALSE
1,6,learned,80,8,12,9,1,9,9,TRUE,2478.72500000149,3,NA,3,2,TRUE,FALSE
1,6,learned,81,4,9,3,6,3,3,TRUE,3278.8400000007823,5,8,5,4,FALSE,FALSE
1,6,learned,82,3,9,2,5,2,5,FALSE,1592.8250000001865,4,6,4,4,FALSE,FALSE
1,6,learned,83,1,10,8,2,8,8,TRUE,4436.534999998286,2,NA,2,2,TRUE,FALSE
1,6,learned,84,4,1,2,5,2,2,TRUE,3073.8149999994785,2,4,2,2,FALSE,FALSE
1,6,learned,85,10,2,8,12,8,8,TRUE,10176.610000000335,3,6,3,3,FALSE,FALSE
1,6,learned,86,12,1,10,13,10,10,TRUE,2168.6349999997765,3,5,3,3,FALSE,FALSE
1,6,learned,87,11,10,12,13,12,12,TRUE,4481.759999998845,2,3,2,2,FALSE,FALSE
1,6,learned,88,1,4,2,8,2,2,TRUE,3356.0400000009686,2,NA,2,2,TRUE,FALSE
1,6,learned,89,4,10,5,6,5,6,FALSE,4247.620000000112,6,8,6,4,FALSE,FALSE
1,6,learned,90,2,11,1,4,1,1,TRUE,10699.855000000449,4,NA,4,4,TRUE,FALSE
1,6,learned,91,11,1,9,12,9,9,TRUE,32192.62999999989,3,4,3,3,FALSE,FALSE
1,6,learned,92,2,7,3,4,NA,4,TRUE,9898.63000000082,3,3,3,3,FALSE,TRUE
1,6,learned,93,4,7,6,2,6,6,TRUE,3314.210000000894,2,4,2,2,FALSE,FALSE
1,6,learned,94,5,1,3,7,3,7,FALSE,7932.759999999776,3,5,3,3,FALSE,FALSE
1,6,learned,95,8,12,10,1,10,10,TRUE,2574.800000000745,2,NA,2,2,TRUE,FALSE
1,6,learned,96,8,6,1,9,1,9,FALSE,1953.9350000014529,4,NA,4,4,TRUE,FALSE
1,6,learned,97,7,4,5,6,NA,6,TRUE,3665.849999998696,2,2,2,2,FALSE,TRUE
1,6,learned,98,12,2,10,11,10,10,TRUE,5696.949999999255,4,5,4,4,FALSE,FALSE
1,6,learned,99,6,8,4,7,4,7,FALSE,20084.64999999851,4,6,4,4,FALSE,FALSE
1,6,learned,100,8,13,9,10,NA,9,TRUE,6506.224999998696,3,3,3,3,FALSE,TRUE
1,6,learned,101,8,5,1,9,1,9,FALSE,6109.990000001155,4,NA,4,4,TRUE,FALSE
1,6,learned,102,9,3,8,11,8,11,FALSE,16767.25500000082,4,7,4,4,FALSE,FALSE
1,6,learned,103,12,2,11,13,11,11,TRUE,15585.895000000484,5,6,5,4,FALSE,FALSE
1,6,learned,104,4,7,3,2,3,3,TRUE,11207.284999998286,3,4,3,2,FALSE,FALSE
1,6,learned,105,8,3,1,10,1,1,TRUE,4788.720000000671,3,NA,3,3,TRUE,FALSE
1,6,learned,106,5,6,4,7,NA,4,TRUE,8051.669999998994,2,2,2,2,FALSE,TRUE
1,6,learned,107,4,7,5,3,5,5,TRUE,8908.735000001267,2,3,2,2,FALSE,FALSE
1,6,learned,108,9,10,8,11,8,8,TRUE,11684.81500000041,2,3,2,2,FALSE,FALSE
1,6,learned,109,1,9,8,2,8,8,TRUE,2305.635000000708,2,NA,2,2,TRUE,FALSE
1,6,learned,110,8,11,9,1,9,9,TRUE,1992.9649999989197,2,NA,2,2,TRUE,FALSE
1,6,learned,111,10,11,12,8,12,12,TRUE,1310.9850000003353,2,3,2,2,FALSE,FALSE
1,6,learned,112,4,8,2,3,2,3,FALSE,4368.049999998882,3,4,3,3,FALSE,FALSE
1,6,learned,113,11,10,9,13,NA,13,TRUE,7821.389999998733,3,3,3,2,FALSE,TRUE
1,6,learned,114,4,8,5,6,5,5,TRUE,7182.44000000041,5,7,5,3,FALSE,FALSE
1,6,learned,115,5,6,4,3,4,4,TRUE,17128.730000000447,2,3,2,2,FALSE,FALSE
1,6,learned,116,1,3,2,8,2,2,TRUE,5604.415000000037,2,NA,2,2,TRUE,FALSE
1,6,learned,117,4,1,2,6,2,2,TRUE,2385.30999999959,2,6,2,2,FALSE,FALSE
1,6,learned,118,6,5,4,7,NA,7,TRUE,5301.054999999702,2,2,2,2,FALSE,TRUE
1,6,learned,119,4,8,3,6,3,3,TRUE,9098.359999999404,4,7,4,3,FALSE,FALSE
1,6,learned,120,11,1,9,13,9,9,TRUE,1678.4300000006333,3,5,3,3,FALSE,FALSE
1,6,learned,121,4,9,2,5,2,5,FALSE,8568.575000001118,4,6,4,4,FALSE,FALSE
1,6,learned,122,4,1,3,5,3,3,TRUE,9151.924999999814,3,4,3,2,FALSE,FALSE
1,6,learned,123,3,6,4,5,4,4,TRUE,3359.739999999292,2,3,2,2,FALSE,FALSE
1,6,learned,124,3,1,2,5,2,2,TRUE,4141.020000001416,2,4,2,2,FALSE,FALSE
1,6,learned,125,12,8,11,13,11,11,TRUE,7539.740000000224,3,4,3,2,FALSE,FALSE
1,6,learned,126,4,9,5,6,5,5,TRUE,5477.170000000857,6,8,6,4,FALSE,FALSE
1,6,learned,127,11,1,12,13,12,13,FALSE,1238.7999999988824,4,5,4,3,FALSE,FALSE
1,6,learned,128,4,8,2,5,2,5,FALSE,5113.714999999851,3,5,3,3,FALSE,FALSE
1,6,learned,129,11,8,12,13,12,12,TRUE,12424.430000001565,3,4,3,2,FALSE,FALSE
1,6,learned,130,3,7,5,2,5,5,TRUE,18955.80499999877,2,4,2,2,FALSE,FALSE
1,6,learned,131,4,9,2,6,2,2,TRUE,6461.074999999255,4,8,4,4,FALSE,FALSE
1,6,learned,132,12,8,10,11,10,10,TRUE,8570.490000000224,2,3,2,2,FALSE,FALSE
1,6,learned,133,5,2,3,4,NA,4,TRUE,3488.3750000009313,2,2,2,2,FALSE,TRUE
1,6,learned,134,5,2,3,7,3,3,TRUE,3444.0400000009686,2,4,2,2,FALSE,FALSE
1,6,learned,135,9,4,8,11,8,8,TRUE,2318.7099999999627,4,7,4,4,FALSE,FALSE
1,6,learned,136,2,12,1,3,1,1,TRUE,17241.159999999218,4,NA,4,4,TRUE,FALSE
1,6,learned,137,4,8,3,5,3,5,FALSE,10116.985000000335,4,5,4,3,FALSE,FALSE
1,6,learned,138,5,6,7,3,7,3,FALSE,9374.439999999478,2,3,2,2,FALSE,FALSE
1,6,learned,139,9,12,11,8,11,11,TRUE,2262.330000001006,2,3,2,2,FALSE,FALSE
1,6,learned,140,10,1,8,12,8,8,TRUE,4214.570000000298,2,5,2,2,FALSE,FALSE
1,6,learned,141,13,1,11,12,NA,11,TRUE,18282.674999999817,4,4,4,4,FALSE,TRUE
1,6,learned,142,4,10,3,5,3,3,TRUE,7579.330000001006,5,6,5,4,FALSE,FALSE
1,6,learned,143,12,2,10,13,10,10,TRUE,10318.895000000484,4,6,4,4,FALSE,FALSE
1,6,learned,144,13,8,11,12,NA,11,TRUE,4426.05999999959,3,3,3,3,FALSE,TRUE
1,6,learned,145,3,6,2,5,NA,2,TRUE,5091.010000000708,3,3,3,2,FALSE,TRUE
1,6,learned,146,7,3,5,6,5,5,TRUE,7715.960000000894,2,3,2,2,FALSE,FALSE
1,6,learned,147,3,10,4,5,4,4,TRUE,8837.375,5,6,5,4,FALSE,FALSE
1,6,learned,148,4,1,2,3,2,3,FALSE,11352.02999999933,2,3,2,2,FALSE,FALSE
1,6,learned,149,2,10,1,3,1,1,TRUE,4648.089999997988,3,NA,3,3,TRUE,FALSE
1,6,learned,150,8,2,1,10,1,10,FALSE,11811.709999999965,2,NA,2,2,TRUE,FALSE
1,6,learned,151,3,9,4,5,4,4,TRUE,8066.210000000894,5,6,5,4,FALSE,FALSE
1,6,learned,152,1,13,8,2,8,8,TRUE,6392.790000000037,4,NA,4,4,TRUE,FALSE
1,6,learned,153,4,1,3,6,3,3,TRUE,2037.0600000005215,3,6,3,2,FALSE,FALSE
1,6,learned,154,9,2,8,11,8,11,FALSE,11136.13000000082,3,6,3,3,FALSE,FALSE
1,6,learned,155,2,7,3,1,3,3,TRUE,4377.660000000149,3,NA,3,3,TRUE,FALSE
1,6,learned,156,8,4,1,9,1,1,TRUE,4589.3650000002235,3,NA,3,3,TRUE,FALSE
1,6,learned,157,8,11,9,10,9,9,TRUE,3674.354999998584,2,3,2,2,FALSE,FALSE
1,6,learned,158,8,13,10,1,10,10,TRUE,2424.3050000006333,3,NA,3,3,TRUE,FALSE
1,6,learned,159,11,2,12,13,12,12,TRUE,7062.070000000298,5,6,5,4,FALSE,FALSE
1,7,learned,1,10,4,8,12,8,8,TRUE,10116.8199999989,4,7,4,4,FALSE,FALSE
1,7,learned,2,3,1,4,5,4,4,TRUE,5313.3149999994785,3,4,3,2,FALSE,FALSE
1,7,learned,3,4,1,5,6,5,5,TRUE,6132.644999998156,4,6,4,2,FALSE,FALSE
1,7,learned,4,5,6,4,7,NA,7,TRUE,5231.1149999988265,2,2,2,2,FALSE,TRUE
1,7,learned,5,8,3,1,10,1,1,TRUE,9218.694999999832,3,NA,3,3,TRUE,FALSE
1,7,learned,6,2,6,3,1,3,1,FALSE,11553.364999999758,3,NA,3,2,TRUE,FALSE
1,7,learned,7,2,8,1,3,1,3,FALSE,5937.910000000615,2,NA,2,2,TRUE,FALSE
1,7,learned,8,9,4,8,11,8,11,FALSE,2921.614999999292,4,7,4,4,FALSE,FALSE
1,7,learned,9,8,4,1,10,1,1,TRUE,3870.330000001471,3,NA,3,3,TRUE,FALSE
1,7,learned,10,4,9,3,6,3,6,FALSE,2565.510000000242,5,8,5,4,FALSE,FALSE
1,7,learned,11,3,10,2,4,2,4,FALSE,3280.295000000391,4,5,4,4,FALSE,FALSE
1,7,learned,12,12,8,10,11,10,10,TRUE,3923.260000003036,2,3,2,2,FALSE,FALSE
1,7,learned,13,1,3,2,8,2,2,TRUE,5230.1149999988265,2,NA,2,2,TRUE,FALSE
1,7,learned,14,8,11,9,10,9,10,FALSE,2208.510000000242,2,3,2,2,FALSE,FALSE
1,7,learned,15,4,9,3,5,3,5,FALSE,7283.840000000317,5,6,5,4,FALSE,FALSE
1,7,learned,16,5,2,4,7,4,4,TRUE,3083.3249999997206,2,4,2,2,FALSE,FALSE
1,7,learned,17,3,9,4,5,4,4,TRUE,14143.080000001935,5,6,5,4,FALSE,FALSE
1,7,learned,18,4,8,2,3,2,2,TRUE,12278.740000001157,3,4,3,3,FALSE,FALSE
1,7,learned,19,5,6,4,3,4,4,TRUE,3916.349999999627,2,3,2,2,FALSE,FALSE
1,7,learned,20,3,7,5,4,5,5,TRUE,3550.599999998696,2,3,2,2,FALSE,FALSE
1,7,learned,21,7,3,5,6,5,5,TRUE,3187.1800000006333,2,3,2,2,FALSE,FALSE
1,7,learned,22,11,10,9,13,NA,13,TRUE,4720.755000002217,3,3,3,2,FALSE,TRUE
1,7,learned,23,2,5,4,1,4,4,TRUE,3923.374999998603,2,NA,2,2,TRUE,FALSE
1,7,learned,24,12,2,10,13,10,13,FALSE,9379.984999999404,4,6,4,4,FALSE,FALSE
1,7,learned,25,2,12,1,4,1,4,FALSE,8655.495000002906,4,NA,4,4,TRUE,FALSE
1,7,learned,26,3,6,2,5,NA,5,TRUE,7084.4550000000745,3,3,3,2,FALSE,TRUE
1,7,learned,27,8,13,10,1,10,10,TRUE,2051.4499999987893,3,NA,3,3,TRUE,FALSE
1,7,learned,28,3,8,2,5,2,5,FALSE,3510.689999999013,3,5,3,3,FALSE,FALSE
1,7,learned,29,11,8,9,13,9,9,TRUE,6638.790000000969,2,4,2,2,FALSE,FALSE
1,7,learned,30,4,8,3,6,3,6,FALSE,2915.160000000149,4,7,4,3,FALSE,FALSE
1,7,learned,31,2,8,1,4,1,1,TRUE,7798.950000000186,2,NA,2,2,TRUE,FALSE
1,7,learned,32,8,11,9,1,9,9,TRUE,5462.074999999255,2,NA,2,2,TRUE,FALSE
1,7,learned,33,5,2,3,7,3,3,TRUE,4854.825000002049,2,4,2,2,FALSE,FALSE
1,7,learned,34,7,2,5,6,NA,5,TRUE,7446.89999999851,3,3,3,3,FALSE,TRUE
1,7,learned,35,2,6,4,1,4,1,FALSE,4887.654999998398,2,NA,2,2,TRUE,FALSE
1,7,learned,36,8,6,1,10,1,10,FALSE,5337.410000000149,4,NA,4,4,TRUE,FALSE
1,7,learned,37,2,5,3,1,3,3,TRUE,3416.1499999975786,2,NA,2,2,TRUE,FALSE
1,7,learned,38,2,12,1,3,1,1,TRUE,2443.754999999888,4,NA,4,4,TRUE,FALSE
1,7,learned,39,1,7,2,8,2,8,FALSE,12633.534999997357,4,NA,4,4,TRUE,FALSE
1,7,learned,40,4,1,2,5,2,5,FALSE,3818.869999999181,2,4,2,2,FALSE,FALSE
1,7,learned,41,4,10,5,6,5,5,TRUE,5501.674999999814,6,8,6,4,FALSE,FALSE
1,7,learned,42,11,1,9,13,9,9,TRUE,1971.5249999975783,3,5,3,3,FALSE,FALSE
1,7,learned,43,10,1,8,12,8,8,TRUE,3529.80999999959,2,5,2,2,FALSE,FALSE
1,7,learned,44,8,12,9,1,9,1,FALSE,3753.269999996759,3,NA,3,2,TRUE,FALSE
1,7,learned,45,6,5,4,7,NA,7,TRUE,3638.6899999994785,2,2,2,2,FALSE,TRUE
1,7,learned,46,10,3,8,12,8,8,TRUE,2190.6899999994785,4,7,4,4,FALSE,FALSE
1,7,learned,47,12,9,10,13,NA,10,TRUE,4413.994999998249,3,3,3,2,FALSE,TRUE
1,7,learned,48,4,8,2,6,2,6,FALSE,3340.4850000003353,3,7,3,3,FALSE,FALSE
1,7,learned,49,6,2,4,7,4,4,TRUE,1808.039999999106,2,4,2,2,FALSE,FALSE
1,7,learned,50,4,7,5,2,5,5,TRUE,1421.015000000596,2,4,2,2,FALSE,FALSE
1,7,learned,51,1,12,8,2,8,2,FALSE,4706.845000000671,3,NA,3,3,TRUE,FALSE
1,7,learned,52,3,9,2,5,2,5,FALSE,1797.1650000000373,4,6,4,4,FALSE,FALSE
1,7,learned,53,1,9,8,2,8,2,FALSE,1553.074999999255,2,NA,2,2,TRUE,FALSE
1,7,learned,54,3,10,4,5,4,5,FALSE,2746.9649999989197,5,6,5,4,FALSE,FALSE
1,7,learned,55,6,1,4,7,4,4,TRUE,1502.375,3,5,3,3,FALSE,FALSE
1,7,learned,56,8,3,1,9,1,1,TRUE,4288.984999998473,3,NA,3,3,TRUE,FALSE
1,7,learned,57,13,8,11,12,NA,11,TRUE,3364.9050000021234,3,3,3,3,FALSE,TRUE
1,7,learned,58,5,6,7,3,7,7,TRUE,4465.499999999069,2,3,2,2,FALSE,FALSE
1,7,learned,59,1,13,8,2,8,8,TRUE,4164.889999999665,4,NA,4,4,TRUE,FALSE
1,7,learned,60,12,1,10,11,10,11,FALSE,4122.639999997802,3,4,3,3,FALSE,FALSE
1,7,learned,61,7,4,5,6,NA,6,TRUE,7208.319999997504,2,2,2,2,FALSE,TRUE
1,7,learned,62,11,1,9,12,9,9,TRUE,1935.6000000005588,3,4,3,3,FALSE,FALSE
1,7,learned,63,4,9,2,6,2,6,FALSE,3061.7999999988824,4,8,4,4,FALSE,FALSE
1,7,learned,64,4,8,2,5,2,5,FALSE,1721.9599999990314,3,5,3,3,FALSE,FALSE
1,7,learned,65,13,10,12,11,12,12,TRUE,2608.8950000004843,2,3,2,2,FALSE,FALSE
1,7,learned,66,3,6,4,2,4,4,TRUE,2823.510000001639,2,3,2,2,FALSE,FALSE
1,7,learned,67,1,10,8,2,8,8,TRUE,1943.0649999994785,2,NA,2,2,TRUE,FALSE
1,7,learned,68,2,10,1,4,1,4,FALSE,3560.944999997504,3,NA,3,3,TRUE,FALSE
1,7,learned,69,2,11,1,4,1,1,TRUE,2312.3899999987334,4,NA,4,4,TRUE,FALSE
1,7,learned,70,8,12,10,9,10,10,TRUE,1181.375,2,3,2,2,FALSE,FALSE
1,7,learned,71,13,9,11,12,11,11,TRUE,1926.074999999255,2,3,2,2,FALSE,FALSE
1,7,learned,72,8,2,1,10,1,1,TRUE,2302.264999997802,2,NA,2,2,TRUE,FALSE
1,7,learned,73,4,1,3,6,3,6,FALSE,3839.384999999777,3,6,3,2,FALSE,FALSE
1,7,learned,74,12,9,11,10,11,10,FALSE,1770.0249999975786,2,3,2,2,FALSE,FALSE
1,7,learned,75,4,1,2,6,2,6,FALSE,3835.7099999990314,2,6,2,2,FALSE,FALSE
1,7,learned,76,8,5,1,9,1,1,TRUE,1100.324999999255,4,NA,4,4,TRUE,FALSE
1,7,learned,77,11,2,12,13,12,13,FALSE,2880.554999999702,5,6,5,4,FALSE,FALSE
1,7,learned,78,4,9,5,6,5,6,FALSE,1998.8950000014156,6,8,6,4,FALSE,FALSE
1,7,learned,79,12,9,11,13,11,13,FALSE,2502.950000002049,2,3,2,2,FALSE,FALSE
1,7,learned,80,2,11,1,3,1,1,TRUE,2275.6999999983236,4,NA,4,4,TRUE,FALSE
1,7,learned,81,3,7,5,2,5,5,TRUE,1198.770000002347,2,4,2,2,FALSE,FALSE
1,7,learned,82,4,9,2,5,2,5,FALSE,4478.450000002049,4,6,4,4,FALSE,FALSE
1,7,learned,83,8,11,10,1,10,10,TRUE,2701.2199999997392,3,NA,3,2,TRUE,FALSE
1,7,learned,84,9,2,8,11,8,8,TRUE,2452.7050000000745,3,6,3,3,FALSE,FALSE
1,7,learned,85,10,13,12,8,12,12,TRUE,1497.8649999974295,2,4,2,2,FALSE,FALSE
1,7,learned,86,12,1,11,13,11,11,TRUE,2239.890000000596,4,5,4,3,FALSE,FALSE
1,7,learned,87,11,10,12,13,12,12,TRUE,2698.455000001006,2,3,2,2,FALSE,FALSE
1,7,learned,88,9,1,8,11,8,11,FALSE,3281.054999999702,2,5,2,2,FALSE,FALSE
1,7,learned,89,12,2,10,11,10,11,FALSE,3118.734999999404,4,5,4,4,FALSE,FALSE
1,7,learned,90,8,12,10,1,10,10,TRUE,1318.3949999976903,2,NA,2,2,TRUE,FALSE
1,7,learned,91,5,1,3,4,NA,4,TRUE,2478.490000001155,3,3,3,3,FALSE,TRUE
1,7,learned,92,4,10,3,6,3,6,FALSE,1251.9299999987709,5,8,5,4,FALSE,FALSE
1,7,learned,93,2,7,3,4,NA,4,TRUE,2475.024999999441,3,3,3,3,FALSE,TRUE
1,7,learned,94,7,1,5,6,NA,6,TRUE,2602.7299999985844,4,4,4,4,FALSE,TRUE
1,7,learned,95,4,10,2,5,2,5,FALSE,1696.664999999106,4,6,4,4,FALSE,FALSE
1,7,learned,96,12,8,10,13,10,10,TRUE,2746.8550000013784,2,4,2,2,FALSE,FALSE
1,7,learned,97,4,9,2,3,2,2,TRUE,1602.235000002198,4,5,4,4,FALSE,FALSE
1,7,learned,98,3,7,4,2,4,4,TRUE,2319.774999999441,3,4,3,2,FALSE,FALSE
1,7,learned,99,8,6,1,9,1,9,FALSE,2359.92499999702,4,NA,4,4,TRUE,FALSE
1,7,learned,100,3,10,2,5,2,5,FALSE,1325.6850000042468,4,6,4,4,FALSE,FALSE
1,7,learned,101,11,2,9,13,9,13,FALSE,2750.6949999993667,4,6,4,4,FALSE,FALSE
1,7,learned,102,9,13,11,8,11,11,TRUE,1337.530000001192,2,4,2,2,FALSE,FALSE
1,7,learned,103,3,8,2,4,2,4,FALSE,2510.3549999985844,3,4,3,3,FALSE,FALSE
1,7,learned,104,3,1,2,4,2,2,TRUE,1727.73499999661,2,3,2,2,FALSE,FALSE
1,7,learned,105,1,6,2,8,2,8,FALSE,1755.420000001788,3,NA,3,3,TRUE,FALSE
1,7,learned,106,1,5,2,8,2,8,FALSE,2171.875,3,NA,3,3,TRUE,FALSE
1,7,learned,107,2,5,3,4,NA,3,TRUE,2739.3100000005215,2,2,2,2,FALSE,TRUE
1,7,learned,108,4,7,3,2,3,3,TRUE,2624.390000000596,3,4,3,2,FALSE,FALSE
1,7,learned,109,2,7,4,1,4,4,TRUE,2782.134999997914,3,NA,3,3,TRUE,FALSE
1,7,learned,110,10,2,8,12,8,8,TRUE,2128.3049999978393,3,6,3,3,FALSE,FALSE
1,7,learned,111,9,12,11,8,11,11,TRUE,3293.8349999999627,2,3,2,2,FALSE,FALSE
1,7,learned,112,6,8,4,7,4,4,TRUE,5113.554999999702,4,6,4,4,FALSE,FALSE
1,7,learned,113,9,10,8,11,8,11,FALSE,1587.8499999996277,2,3,2,2,FALSE,FALSE
1,7,learned,114,12,2,11,13,11,11,TRUE,3778.1949999993662,5,6,5,4,FALSE,FALSE
1,7,learned,115,3,9,2,4,2,4,FALSE,1800.8499999996277,4,5,4,4,FALSE,FALSE
1,7,learned,116,11,8,12,13,12,13,FALSE,1238.874999999069,3,4,3,2,FALSE,FALSE
1,7,learned,117,5,1,4,7,4,4,TRUE,2120.3449999997392,3,5,3,3,FALSE,FALSE
1,7,learned,118,4,8,5,6,5,6,FALSE,3552.2100000018254,5,7,5,3,FALSE,FALSE
1,7,learned,119,6,3,4,7,4,4,TRUE,1634.4700000006706,2,3,2,2,FALSE,FALSE
1,7,learned,120,8,2,1,9,1,1,TRUE,1513.9799999995157,2,NA,2,2,TRUE,FALSE
1,7,learned,121,13,1,11,12,NA,12,TRUE,2050.0449999999255,4,4,4,4,FALSE,TRUE
1,7,learned,122,4,7,5,3,5,5,TRUE,2479.5549999978393,2,3,2,2,FALSE,FALSE
1,7,learned,123,8,13,9,1,9,1,FALSE,1481.035000000149,3,NA,3,3,TRUE,FALSE
1,7,learned,124,2,9,1,3,1,1,TRUE,1921.6150000030177,3,NA,3,3,TRUE,FALSE
1,7,learned,125,5,1,3,7,3,7,FALSE,1579.8199999993667,3,5,3,3,FALSE,FALSE
1,7,learned,126,4,1,2,3,2,2,TRUE,2481.155000001192,2,3,2,2,FALSE,FALSE
1,7,learned,127,8,5,1,10,1,1,TRUE,3411.1300000008196,4,NA,4,4,TRUE,FALSE
1,7,learned,128,4,10,2,3,2,2,TRUE,1487.5800000010058,4,5,4,4,FALSE,FALSE
1,7,learned,129,4,7,6,2,6,6,TRUE,1977.935000002384,2,4,2,2,FALSE,FALSE
1,7,learned,130,1,4,2,8,2,2,TRUE,1452.0799999991432,2,NA,2,2,TRUE,FALSE
1,7,learned,131,10,9,8,12,8,8,TRUE,2895.784999997355,2,3,2,2,FALSE,FALSE
1,7,learned,132,4,10,2,6,2,6,FALSE,1859.6749999998135,4,8,4,4,FALSE,FALSE
1,7,learned,133,3,8,4,5,4,4,TRUE,4410.489999998361,4,5,4,3,FALSE,FALSE
1,7,learned,134,4,8,3,5,3,5,FALSE,1456.8650000002235,4,5,4,3,FALSE,FALSE
1,7,learned,135,1,11,8,2,8,8,TRUE,2373.9050000002608,3,NA,3,3,TRUE,FALSE
1,7,learned,136,2,9,1,4,1,1,TRUE,3211.820000000298,3,NA,3,3,TRUE,FALSE
1,7,learned,137,12,8,11,13,11,11,TRUE,2488.6799999987707,3,4,3,2,FALSE,FALSE
1,7,learned,138,8,13,9,10,NA,10,TRUE,2913.689999997616,3,3,3,3,FALSE,TRUE
1,7,learned,139,11,1,12,13,12,13,FALSE,3120.6449999986216,4,5,4,3,FALSE,FALSE
1,7,learned,140,5,8,4,7,4,4,TRUE,1915.7349999984729,4,6,4,4,FALSE,FALSE
1,7,learned,141,5,2,3,4,NA,3,TRUE,1352.5949999997392,2,2,2,2,FALSE,TRUE
1,7,learned,142,3,1,2,5,2,2,TRUE,2088.120000000112,2,4,2,2,FALSE,FALSE
1,7,learned,143,11,8,9,12,9,12,FALSE,2131.9400000022724,2,3,2,2,FALSE,FALSE
1,7,learned,144,11,10,12,9,12,12,TRUE,2696.945000003092,2,3,2,2,FALSE,FALSE
1,7,learned,145,5,8,3,7,3,3,TRUE,2836.7149999979883,4,6,4,4,FALSE,FALSE
1,7,learned,146,3,6,4,5,4,5,FALSE,1886.485000002198,2,3,2,2,FALSE,FALSE
1,7,learned,147,9,3,8,11,8,8,TRUE,1590.034999997355,4,7,4,4,FALSE,FALSE
1,7,learned,148,2,6,4,3,4,4,TRUE,2057.875000002794,2,3,2,2,FALSE,FALSE
1,7,learned,149,2,7,3,1,3,3,TRUE,3360.1400000015274,3,NA,3,3,TRUE,FALSE
1,7,learned,150,4,1,3,5,3,3,TRUE,4296.759999997914,3,4,3,2,FALSE,FALSE
1,7,learned,151,12,1,10,13,10,10,TRUE,1770.7399999992922,3,5,3,3,FALSE,FALSE
1,7,learned,152,4,7,6,3,6,6,TRUE,3840.4300000006338,2,3,2,2,FALSE,FALSE
1,7,learned,153,2,10,1,3,1,1,TRUE,1617.324999999255,3,NA,3,3,TRUE,FALSE
1,7,learned,154,11,2,9,12,9,9,TRUE,2545.7399999974295,4,5,4,4,FALSE,FALSE
1,7,learned,155,5,8,3,4,NA,4,TRUE,2373.3250000001863,4,4,4,4,FALSE,TRUE
1,7,learned,156,4,7,5,6,NA,6,TRUE,1509.2750000003723,2,2,2,2,FALSE,TRUE
1,7,learned,157,10,11,12,8,12,8,FALSE,3884.43499999959,2,3,2,2,FALSE,FALSE
1,7,learned,158,4,10,3,5,3,5,FALSE,1616.9300000006333,5,6,5,4,FALSE,FALSE
1,7,learned,159,8,4,1,9,1,1,TRUE,2566.839999999851,3,NA,3,3,TRUE,FALSE
1,8,learned,1,11,2,9,12,9,12,FALSE,3998.2650000015274,4,5,4,4,FALSE,FALSE
1,8,learned,2,4,7,6,3,6,3,FALSE,3907.914999999571,2,3,2,2,FALSE,FALSE
1,8,learned,3,5,1,3,7,3,3,TRUE,4346.529999998864,3,5,3,3,FALSE,FALSE
1,8,learned,4,4,10,2,5,2,5,FALSE,3076.3550000013784,4,6,4,4,FALSE,FALSE
1,8,learned,5,12,8,10,11,10,11,FALSE,6811.454999999143,2,3,2,2,FALSE,FALSE
1,8,learned,6,8,2,1,10,1,10,FALSE,5304.694999998901,2,NA,2,2,TRUE,FALSE
1,8,learned,7,10,13,12,8,12,12,TRUE,2768.2900000000373,2,4,2,2,FALSE,FALSE
1,8,learned,8,4,1,2,5,2,2,TRUE,5431.960000001825,2,4,2,2,FALSE,FALSE
1,8,learned,9,8,3,1,9,1,1,TRUE,4285.06500000041,3,NA,3,3,TRUE,FALSE
1,8,learned,10,2,6,4,1,4,4,TRUE,6367.130000002682,2,NA,2,2,TRUE,FALSE
1,8,learned,11,8,11,10,1,10,10,TRUE,6053.640000001527,3,NA,3,2,TRUE,FALSE
1,8,learned,12,2,9,1,3,1,3,FALSE,6689.470000001136,3,NA,3,3,TRUE,FALSE
1,8,learned,13,3,6,4,5,4,5,FALSE,3264.565000001341,2,3,2,2,FALSE,FALSE
1,8,learned,14,5,6,7,3,7,7,TRUE,4690.959999999963,2,3,2,2,FALSE,FALSE
1,8,learned,15,8,2,1,9,1,1,TRUE,5546.719999998808,2,NA,2,2,TRUE,FALSE
1,8,learned,16,4,7,3,2,3,3,TRUE,4812.420000002254,3,4,3,2,FALSE,FALSE
1,8,learned,17,4,10,2,6,2,6,FALSE,10672.544999997595,4,8,4,4,FALSE,FALSE
1,8,learned,18,2,11,1,4,1,1,TRUE,6924.630000001285,4,NA,4,4,TRUE,FALSE
1,8,learned,19,8,3,1,10,1,1,TRUE,4388.989999999292,3,NA,3,3,TRUE,FALSE
1,8,learned,20,4,9,2,3,2,2,TRUE,3450.37000000244,4,5,4,4,FALSE,FALSE
1,8,learned,21,8,5,1,10,1,10,FALSE,9215.815000003204,4,NA,4,4,TRUE,FALSE
1,8,learned,22,8,5,1,9,1,1,TRUE,5029.674999997951,4,NA,4,4,TRUE,FALSE
1,8,learned,23,8,4,1,10,1,10,FALSE,5722.5099999997765,3,NA,3,3,TRUE,FALSE
1,8,learned,24,4,7,5,6,NA,5,TRUE,3456.160000001546,2,2,2,2,FALSE,TRUE
1,8,learned,25,3,7,4,2,4,4,TRUE,3269.3849999997765,3,4,3,2,FALSE,FALSE
1,8,learned,26,2,5,4,1,4,4,TRUE,3296.0800000000745,2,NA,2,2,TRUE,FALSE
1,8,learned,27,9,2,8,11,8,8,TRUE,4112.109999998007,3,6,3,3,FALSE,FALSE
1,8,learned,28,1,10,8,2,8,8,TRUE,4149.479999999981,2,NA,2,2,TRUE,FALSE
1,8,learned,29,13,1,11,12,NA,12,TRUE,3194.5549999978393,4,4,4,4,FALSE,TRUE
1,8,learned,30,4,7,5,2,5,5,TRUE,3173.8750000004657,2,4,2,2,FALSE,FALSE
1,8,learned,31,10,11,12,8,12,12,TRUE,4135.470000001136,2,3,2,2,FALSE,FALSE
1,8,learned,32,4,7,5,3,5,3,FALSE,1448.0300000035204,2,3,2,2,FALSE,FALSE
1,8,learned,33,11,10,12,9,12,9,FALSE,5149.95000000298,2,3,2,2,FALSE,FALSE
1,8,learned,34,8,13,10,1,10,1,FALSE,3447.059999998659,3,NA,3,3,TRUE,FALSE
1,8,learned,35,1,12,8,2,8,2,FALSE,4164.264999999665,3,NA,3,3,TRUE,FALSE
1,8,learned,36,4,1,2,3,2,2,TRUE,5723.43499999959,2,3,2,2,FALSE,FALSE
1,8,learned,37,12,1,10,11,10,10,TRUE,3520.055000001099,3,4,3,3,FALSE,FALSE
1,8,learned,38,13,10,12,11,12,12,TRUE,3692.3449999997392,2,3,2,2,FALSE,FALSE
1,8,learned,39,3,8,4,5,4,4,TRUE,5075.014999998268,4,5,4,3,FALSE,FALSE
1,8,learned,40,3,6,4,2,4,4,TRUE,3826.444999998901,2,3,2,2,FALSE,FALSE
1,8,learned,41,3,10,4,5,4,4,TRUE,3876.41000000108,5,6,5,4,FALSE,FALSE
1,8,learned,42,2,7,4,1,4,4,TRUE,4675.640000001527,3,NA,3,3,TRUE,FALSE
1,8,learned,43,1,4,2,8,2,2,TRUE,7712.279999999795,2,NA,2,2,TRUE,FALSE
1,8,learned,44,8,4,1,9,1,9,FALSE,3714.964999999386,3,NA,3,3,TRUE,FALSE
1,8,learned,45,9,13,11,8,11,11,TRUE,2900.970000002533,2,4,2,2,FALSE,FALSE
1,8,learned,46,11,8,9,13,9,9,TRUE,2199.704999999143,2,4,2,2,FALSE,FALSE
1,8,learned,47,1,13,8,2,8,2,FALSE,6232.16999999946,4,NA,4,4,TRUE,FALSE
1,8,learned,48,8,12,10,1,10,10,TRUE,1861.8249999997208,2,NA,2,2,TRUE,FALSE
1,8,learned,49,11,8,12,13,12,12,TRUE,3325.975000000093,3,4,3,2,FALSE,FALSE
1,8,learned,50,3,8,2,5,2,2,TRUE,3709.429999999236,3,5,3,3,FALSE,FALSE
1,8,learned,51,5,8,4,7,4,7,FALSE,4494.309999998193,4,6,4,4,FALSE,FALSE
1,8,learned,52,7,3,5,6,5,5,TRUE,5106.715000001714,2,3,2,2,FALSE,FALSE
1,8,learned,53,5,1,4,7,4,4,TRUE,3806.3750000004657,3,5,3,3,FALSE,FALSE
1,8,learned,54,4,1,2,6,2,2,TRUE,3500.5699999998324,2,6,2,2,FALSE,FALSE
1,8,learned,55,3,7,5,2,5,5,TRUE,2138.365000002552,2,4,2,2,FALSE,FALSE
1,8,learned,56,3,9,2,4,2,2,TRUE,5895.575000002515,4,5,4,4,FALSE,FALSE
1,8,learned,57,12,9,10,13,NA,10,TRUE,4404.619999997783,3,3,3,2,FALSE,TRUE
1,8,learned,58,4,8,3,5,3,3,TRUE,3540.9699999978766,4,5,4,3,FALSE,FALSE
1,8,learned,59,3,9,4,5,4,4,TRUE,3830.584999999497,5,6,5,4,FALSE,FALSE
1,8,learned,60,4,10,5,6,5,6,FALSE,3463.8900000024587,6,8,6,4,FALSE,FALSE
1,8,learned,61,9,1,8,11,8,8,TRUE,3889.610000001732,2,5,2,2,FALSE,FALSE
1,8,learned,62,11,8,9,12,9,9,TRUE,2949.210000002291,2,3,2,2,FALSE,FALSE
1,8,learned,63,1,5,2,8,2,2,TRUE,4492.525000001304,3,NA,3,3,TRUE,FALSE
1,8,learned,64,8,11,9,1,9,9,TRUE,18690.24500000151,2,NA,2,2,TRUE,FALSE
1,8,learned,65,6,3,4,7,4,4,TRUE,2518.1599999996834,2,3,2,2,FALSE,FALSE
1,8,learned,66,3,7,5,4,5,5,TRUE,2567.7750000031665,2,3,2,2,FALSE,FALSE
1,8,learned,67,12,9,11,10,11,10,FALSE,6634.030000000726,2,3,2,2,FALSE,FALSE
1,8,learned,68,2,7,3,1,3,3,TRUE,2787.870000000112,3,NA,3,3,TRUE,FALSE
1,8,learned,69,2,10,1,3,1,1,TRUE,3032.695000001695,3,NA,3,3,TRUE,FALSE
1,8,learned,70,6,5,4,7,NA,4,TRUE,5839.685000002384,2,2,2,2,FALSE,TRUE
1,8,learned,71,8,6,1,10,1,10,FALSE,3159.395000002347,4,NA,4,4,TRUE,FALSE
1,8,learned,72,3,1,2,5,2,2,TRUE,10189.470000001136,2,4,2,2,FALSE,FALSE
1,8,learned,73,5,1,3,4,NA,3,TRUE,8130.895000001881,3,3,3,3,FALSE,TRUE
1,8,learned,74,2,10,1,4,1,1,TRUE,3165.6350000011735,3,NA,3,3,TRUE,FALSE
1,8,learned,75,4,8,2,3,2,3,FALSE,4009.6400000001304,3,4,3,3,FALSE,FALSE
1,8,learned,76,2,5,3,4,NA,4,TRUE,2004.3000000002792,2,2,2,2,FALSE,TRUE
1,8,learned,77,7,4,5,6,NA,5,TRUE,2149.3750000009313,2,2,2,2,FALSE,TRUE
1,8,learned,78,12,8,11,13,11,11,TRUE,2848.3349999985658,3,4,3,2,FALSE,FALSE
1,8,learned,79,1,7,2,8,2,2,TRUE,3371.0849999985658,4,NA,4,4,TRUE,FALSE
1,8,learned,80,3,1,4,5,4,4,TRUE,6055.124999999069,3,4,3,2,FALSE,FALSE
1,8,learned,81,4,1,3,5,3,3,TRUE,7463.410000000615,3,4,3,2,FALSE,FALSE
1,8,learned,82,2,12,1,4,1,1,TRUE,9871.790000000969,4,NA,4,4,TRUE,FALSE
1,8,learned,83,6,8,4,7,4,4,TRUE,5810.935000001453,4,6,4,4,FALSE,FALSE
1,8,learned,84,4,7,6,2,6,6,TRUE,19636.135000000708,2,4,2,2,FALSE,FALSE
1,8,learned,85,1,6,2,8,2,2,TRUE,19009.36500000209,3,NA,3,3,TRUE,FALSE
1,8,learned,86,10,3,8,12,8,8,TRUE,4549.279999999329,4,7,4,4,FALSE,FALSE
1,8,learned,87,4,1,3,6,3,3,TRUE,2376.3999999975786,3,6,3,2,FALSE,FALSE
1,8,learned,88,8,11,9,10,9,10,FALSE,2787.9600000018254,2,3,2,2,FALSE,FALSE
1,8,learned,89,10,9,8,12,8,12,FALSE,3063.6300000008196,2,3,2,2,FALSE,FALSE
1,8,learned,90,2,6,3,1,3,3,TRUE,7789.065000001341,3,NA,3,2,TRUE,FALSE
1,8,learned,91,5,8,3,7,3,3,TRUE,4998.595000000671,4,6,4,4,FALSE,FALSE
1,8,learned,92,6,2,4,7,4,4,TRUE,3105.240000001155,2,4,2,2,FALSE,FALSE
1,8,learned,93,5,8,3,4,NA,3,TRUE,3679.0300000030543,4,4,4,4,FALSE,TRUE
1,8,learned,94,4,10,3,5,3,5,FALSE,2753.824999999255,5,6,5,4,FALSE,FALSE
1,8,learned,95,13,8,11,12,NA,12,TRUE,3475.545000000857,3,3,3,3,FALSE,TRUE
1,8,learned,96,10,1,8,12,8,12,FALSE,4461.625,2,5,2,2,FALSE,FALSE
1,8,learned,97,4,8,3,6,3,3,TRUE,3162.294999998994,4,7,4,3,FALSE,FALSE
1,8,learned,98,2,7,3,4,NA,4,TRUE,3572.0699999984354,3,3,3,3,FALSE,TRUE
1,8,learned,99,2,12,1,3,1,1,TRUE,2239.330000001006,4,NA,4,4,TRUE,FALSE
1,8,learned,100,12,2,10,13,10,13,FALSE,4407.01000000257,4,6,4,4,FALSE,FALSE
1,8,learned,101,11,10,12,13,12,13,FALSE,3793.30499999877,2,3,2,2,FALSE,FALSE
1,8,learned,102,12,1,10,13,10,13,FALSE,3622.749999998138,3,5,3,3,FALSE,FALSE
1,8,learned,103,3,1,2,4,2,2,TRUE,3092.5050000008196,2,3,2,2,FALSE,FALSE
1,8,learned,104,6,1,4,7,4,4,TRUE,6063.324999999255,3,5,3,3,FALSE,FALSE
1,8,learned,105,4,10,3,6,3,6,FALSE,4467.879999999888,5,8,5,4,FALSE,FALSE
1,8,learned,106,8,12,10,9,10,10,TRUE,8135.395000001416,2,3,2,2,FALSE,FALSE
1,8,learned,107,9,4,8,11,8,8,TRUE,6440.954999998212,4,7,4,4,FALSE,FALSE
1,8,learned,108,3,6,2,5,NA,5,TRUE,2994.6950000012293,3,3,3,2,FALSE,TRUE
1,8,learned,109,4,10,2,3,2,2,TRUE,5200.595000001602,4,5,4,4,FALSE,FALSE
1,8,learned,110,2,6,4,3,4,4,TRUE,4563.56500000041,2,3,2,2,FALSE,FALSE
1,8,learned,111,4,9,2,6,2,2,TRUE,3859.6400000024582,4,8,4,4,FALSE,FALSE
1,8,learned,112,11,1,9,12,9,12,FALSE,5169.36999999918,3,4,3,3,FALSE,FALSE
1,8,learned,113,3,9,2,5,2,2,TRUE,3806.244999999181,4,6,4,4,FALSE,FALSE
1,8,learned,114,3,10,2,4,2,4,FALSE,3531.5400000000373,4,5,4,4,FALSE,FALSE
1,8,learned,115,2,9,1,4,1,1,TRUE,3331.760000000708,3,NA,3,3,TRUE,FALSE
1,8,learned,116,4,1,5,6,5,5,TRUE,3179.589999999851,4,6,4,2,FALSE,FALSE
1,8,learned,117,8,13,9,10,NA,9,TRUE,4312.110000003129,3,3,3,3,FALSE,TRUE
1,8,learned,118,5,6,4,7,NA,4,TRUE,2954.394999996759,2,2,2,2,FALSE,TRUE
1,8,learned,119,9,12,11,8,11,11,TRUE,3006.8600000012666,2,3,2,2,FALSE,FALSE
1,8,learned,120,4,9,3,5,3,3,TRUE,4756.73999999743,5,6,5,4,FALSE,FALSE
1,8,learned,121,4,9,5,6,5,5,TRUE,2292.2099999999627,6,8,6,4,FALSE,FALSE
1,8,learned,122,11,10,9,13,NA,9,TRUE,3199.9699999978766,3,3,3,2,FALSE,TRUE
1,8,learned,123,8,6,1,9,1,1,TRUE,3775.134999999777,4,NA,4,4,TRUE,FALSE
1,8,learned,124,4,8,5,6,5,5,TRUE,4005.5,5,7,5,3,FALSE,FALSE
1,8,learned,125,1,9,8,2,8,8,TRUE,6761.109999999404,2,NA,2,2,TRUE,FALSE
1,8,learned,126,9,3,8,11,8,8,TRUE,5240.270000001416,4,7,4,4,FALSE,FALSE
1,8,learned,127,2,8,1,3,1,1,TRUE,3053.575000002049,2,NA,2,2,TRUE,FALSE
1,8,learned,128,4,8,2,5,2,2,TRUE,6956.739999998361,3,5,3,3,FALSE,FALSE
1,8,learned,129,13,9,11,12,11,11,TRUE,6897.745000001974,2,3,2,2,FALSE,FALSE
1,8,learned,130,2,8,1,4,1,1,TRUE,3073.5349999992177,2,NA,2,2,TRUE,FALSE
1,8,learned,131,12,9,11,13,11,13,FALSE,3168.4849999984726,2,3,2,2,FALSE,FALSE
1,8,learned,132,4,9,3,6,3,3,TRUE,4109.459999999963,5,8,5,4,FALSE,FALSE
1,8,learned,133,4,9,2,5,2,2,TRUE,2890.484999999404,4,6,4,4,FALSE,FALSE
1,8,learned,134,3,10,2,5,2,5,FALSE,2837.5149999987334,4,6,4,4,FALSE,FALSE
1,8,learned,135,11,2,9,13,9,13,FALSE,4685.585000002757,4,6,4,4,FALSE,FALSE
1,8,learned,136,5,2,3,7,3,3,TRUE,3091.864999998361,2,4,2,2,FALSE,FALSE
1,8,learned,137,11,2,12,13,12,12,TRUE,3085.5349999982864,5,6,5,4,FALSE,FALSE
1,8,learned,138,5,6,4,3,4,4,TRUE,1805.1049999995157,2,3,2,2,FALSE,FALSE
1,8,learned,139,5,2,4,7,4,4,TRUE,5448.264999998733,2,4,2,2,FALSE,FALSE
1,8,learned,140,7,1,5,6,NA,6,TRUE,3552.7150000017136,4,4,4,4,FALSE,TRUE
1,8,learned,141,12,2,11,13,11,11,TRUE,4459.954999998212,5,6,5,4,FALSE,FALSE
1,8,learned,142,7,2,5,6,NA,5,TRUE,3906.699999999255,3,3,3,3,FALSE,TRUE
1,8,learned,143,11,1,9,13,9,9,TRUE,3549.060000001453,3,5,3,3,FALSE,FALSE
1,8,learned,144,8,13,9,1,9,1,FALSE,3847.454999999143,3,NA,3,3,TRUE,FALSE
1,8,learned,145,4,8,2,6,2,2,TRUE,3209.5849999999627,3,7,3,3,FALSE,FALSE
1,8,learned,146,5,2,3,4,NA,4,TRUE,3384.7649999987334,2,2,2,2,FALSE,TRUE
1,8,learned,147,10,2,8,12,8,12,FALSE,3773.755000001751,3,6,3,3,FALSE,FALSE
1,8,learned,148,3,8,2,4,2,2,TRUE,5332.064999998547,3,4,3,3,FALSE,FALSE
1,8,learned,149,1,3,2,8,2,8,FALSE,3579.8500000024214,2,NA,2,2,TRUE,FALSE
1,8,learned,150,2,5,3,1,3,3,TRUE,3768.160000000149,2,NA,2,2,TRUE,FALSE
1,8,learned,151,10,4,8,12,8,8,TRUE,5905.320000001229,4,7,4,4,FALSE,FALSE
1,8,learned,152,2,11,1,3,1,1,TRUE,3056.7799999993294,4,NA,4,4,TRUE,FALSE
1,8,learned,153,12,1,11,13,11,11,TRUE,2800.5950000006706,4,5,4,3,FALSE,FALSE
1,8,learned,154,12,8,10,13,10,13,FALSE,2583.5499999998137,2,4,2,2,FALSE,FALSE
1,8,learned,155,11,1,12,13,12,12,TRUE,2839.8449999978766,4,5,4,3,FALSE,FALSE
1,8,learned,156,1,11,8,2,8,2,FALSE,14176.49499999918,3,NA,3,3,TRUE,FALSE
1,8,learned,157,9,10,8,11,8,8,TRUE,3000.870000000112,2,3,2,2,FALSE,FALSE
1,8,learned,158,12,2,10,11,10,11,FALSE,3486.7549999980256,4,5,4,4,FALSE,FALSE
1,8,learned,159,8,12,9,1,9,1,FALSE,2463.3850000025705,3,NA,3,2,TRUE,FALSE
1,9,learned,1,9,3,8,11,8,8,TRUE,16251.899998635054,4,7,4,4,FALSE,FALSE
1,9,learned,2,2,9,1,4,1,1,TRUE,15720.19999846816,3,NA,3,3,TRUE,FALSE
1,9,learned,3,2,7,4,1,4,4,TRUE,5351.800002157688,3,NA,3,3,TRUE,FALSE
1,9,learned,4,4,9,5,6,5,5,TRUE,14224.399998784063,6,8,6,4,FALSE,FALSE
1,9,learned,5,2,6,4,3,4,4,TRUE,4218.800000846386,2,3,2,2,FALSE,FALSE
1,9,learned,6,3,10,4,5,4,4,TRUE,7185.600001364946,5,6,5,4,FALSE,FALSE
1,9,learned,7,12,9,11,13,11,11,TRUE,9387.899998575447,2,3,2,2,FALSE,FALSE
1,9,learned,8,13,8,11,12,NA,11,TRUE,7286.60000115633,3,3,3,3,FALSE,TRUE
1,9,learned,9,3,10,2,4,2,2,TRUE,7793.199997395277,4,5,4,4,FALSE,FALSE
1,9,learned,10,4,8,2,5,2,2,TRUE,11483.500000089409,3,5,3,3,FALSE,FALSE
1,9,learned,11,8,3,1,9,1,1,TRUE,10880.699999630451,3,NA,3,3,TRUE,FALSE
1,9,learned,12,5,6,4,7,NA,7,TRUE,4878.799997270107,2,2,2,2,FALSE,TRUE
1,9,learned,13,12,2,11,13,11,11,TRUE,5416.600000113249,5,6,5,4,FALSE,FALSE
1,9,learned,14,4,8,5,6,5,5,TRUE,14349.09999743104,5,7,5,3,FALSE,FALSE
1,9,learned,15,13,10,12,11,12,12,TRUE,5317.999999970198,2,3,2,2,FALSE,FALSE
1,9,learned,16,10,2,8,12,8,8,TRUE,3906.399998813867,3,6,3,3,FALSE,FALSE
1,9,learned,17,9,12,11,8,11,11,TRUE,3625.500001013279,2,3,2,2,FALSE,FALSE
1,9,learned,18,5,2,3,4,NA,4,TRUE,5425.400000065565,2,2,2,2,FALSE,TRUE
1,9,learned,19,4,7,6,3,6,6,TRUE,8017.299998551607,2,3,2,2,FALSE,FALSE
1,9,learned,20,7,1,5,6,NA,5,TRUE,10380.499999970198,4,4,4,4,FALSE,TRUE
1,9,learned,21,10,11,12,8,12,12,TRUE,5675.499998033047,2,3,2,2,FALSE,FALSE
1,9,learned,22,11,1,9,12,9,9,TRUE,5256.399996578693,3,4,3,3,FALSE,FALSE
1,9,learned,23,8,5,1,9,1,1,TRUE,7760.400000959635,4,NA,4,4,TRUE,FALSE
1,9,learned,24,9,1,8,11,8,8,TRUE,10387.199997901917,2,5,2,2,FALSE,FALSE
1,9,learned,25,10,13,12,8,12,12,TRUE,3802.099999040365,2,4,2,2,FALSE,FALSE
1,9,learned,26,12,9,11,10,11,11,TRUE,2507.3000006377697,2,3,2,2,FALSE,FALSE
1,9,learned,27,3,9,2,4,2,4,FALSE,10565.600000321863,4,5,4,4,FALSE,FALSE
1,9,learned,28,13,9,11,12,11,11,TRUE,5443.10000166297,2,3,2,2,FALSE,FALSE
1,9,learned,29,11,10,12,13,12,12,TRUE,5145.4000025987625,2,3,2,2,FALSE,FALSE
1,9,learned,30,8,12,10,9,10,10,TRUE,6281.600002199411,2,3,2,2,FALSE,FALSE
1,9,learned,31,1,7,2,8,2,2,TRUE,14719.399999827148,4,NA,4,4,TRUE,FALSE
1,9,learned,32,5,1,3,4,NA,4,TRUE,5156.799998134375,3,3,3,3,FALSE,TRUE
1,9,learned,33,12,1,10,13,10,13,FALSE,6099.700000137091,3,5,3,3,FALSE,FALSE
1,9,learned,34,4,9,2,3,2,2,TRUE,6798.700001090765,4,5,4,4,FALSE,FALSE
1,9,learned,35,4,7,5,2,5,5,TRUE,7238.499999046326,2,4,2,2,FALSE,FALSE
1,9,learned,36,12,8,10,13,10,10,TRUE,7542.000003159046,2,4,2,2,FALSE,FALSE
1,9,learned,37,10,4,8,12,8,12,FALSE,8619.599997997284,4,7,4,4,FALSE,FALSE
1,9,learned,38,8,11,9,1,9,9,TRUE,12324.799999594688,2,NA,2,2,TRUE,FALSE
1,9,learned,39,7,3,5,6,5,5,TRUE,3200.600001960993,2,3,2,2,FALSE,FALSE
1,9,learned,40,11,1,12,13,12,13,FALSE,5395.300000905991,4,5,4,3,FALSE,FALSE
1,9,learned,41,3,6,4,5,4,4,TRUE,2729.1999980807304,2,3,2,2,FALSE,FALSE
1,9,learned,42,12,1,11,13,11,13,FALSE,4520.099997520447,4,5,4,3,FALSE,FALSE
1,9,learned,43,2,8,1,3,1,1,TRUE,7007.400002330542,2,NA,2,2,TRUE,FALSE
1,9,learned,44,8,6,1,9,1,1,TRUE,4792.399998754263,4,NA,4,4,TRUE,FALSE
1,9,learned,45,3,6,4,2,4,4,TRUE,2513.3000016212463,2,3,2,2,FALSE,FALSE
1,9,learned,46,8,4,1,9,1,1,TRUE,3364.3999993801117,3,NA,3,3,TRUE,FALSE
1,9,learned,47,3,7,5,4,5,4,FALSE,1811.0000006854536,2,3,2,2,FALSE,FALSE
1,9,learned,48,4,7,6,2,6,2,FALSE,6423.300001770258,2,4,2,2,FALSE,FALSE
1,9,learned,49,8,2,1,9,1,1,TRUE,6793.800000101328,2,NA,2,2,TRUE,FALSE
1,9,learned,50,8,12,10,1,10,10,TRUE,4338.199999183416,2,NA,2,2,TRUE,FALSE
1,9,learned,51,3,7,5,2,5,5,TRUE,4337.29999884963,2,4,2,2,FALSE,FALSE
1,9,learned,52,7,2,5,6,NA,5,TRUE,4852.399997413158,3,3,3,3,FALSE,TRUE
1,9,learned,53,3,6,2,5,NA,5,TRUE,3256.900001317262,3,3,3,2,FALSE,TRUE
1,9,learned,54,4,1,2,6,2,2,TRUE,2408.1999994814396,2,6,2,2,FALSE,FALSE
1,9,learned,55,1,10,8,2,8,8,TRUE,6393.500000238419,2,NA,2,2,TRUE,FALSE
1,9,learned,56,2,10,1,4,1,4,FALSE,6521.200001239777,3,NA,3,3,TRUE,FALSE
1,9,learned,57,9,2,8,11,8,8,TRUE,5016.499999910593,3,6,3,3,FALSE,FALSE
1,9,learned,58,11,2,9,13,9,13,FALSE,17470.19999846816,4,6,4,4,FALSE,FALSE
1,9,learned,59,12,2,10,11,10,10,TRUE,9537.300001829864,4,5,4,4,FALSE,FALSE
1,9,learned,60,4,1,5,6,5,5,TRUE,6735.5000004172325,4,6,4,2,FALSE,FALSE
1,9,learned,61,4,8,3,5,3,5,FALSE,15228.59999909997,4,5,4,3,FALSE,FALSE
1,9,learned,62,8,13,9,10,NA,10,TRUE,3197.8999972343445,3,3,3,3,FALSE,TRUE
1,9,learned,63,2,12,1,3,1,1,TRUE,6065.999999642372,4,NA,4,4,TRUE,FALSE
1,9,learned,64,11,10,9,13,NA,13,TRUE,12167.500000447037,3,3,3,2,FALSE,TRUE
1,9,learned,65,2,5,3,4,NA,4,TRUE,2712.099999189377,2,2,2,2,FALSE,TRUE
1,9,learned,66,3,9,2,5,2,2,TRUE,11573.400001972914,4,6,4,4,FALSE,FALSE
1,9,learned,67,11,8,9,13,9,9,TRUE,8901.300001889467,2,4,2,2,FALSE,FALSE
1,9,learned,68,4,10,5,6,5,6,FALSE,4656.399998813868,6,8,6,4,FALSE,FALSE
1,9,learned,69,11,10,12,9,12,12,TRUE,2185.599997639656,2,3,2,2,FALSE,FALSE
1,9,learned,70,1,3,2,8,2,2,TRUE,4284.099999815226,2,NA,2,2,TRUE,FALSE
1,9,learned,71,4,9,3,5,3,3,TRUE,7587.29999884963,5,6,5,4,FALSE,FALSE
1,9,learned,72,8,13,9,1,9,9,TRUE,8592.400003224611,3,NA,3,3,TRUE,FALSE
1,9,learned,73,3,10,2,5,2,2,TRUE,5040.300000458956,4,6,4,4,FALSE,FALSE
1,9,learned,74,8,11,10,1,10,10,TRUE,2319.600000977516,3,NA,3,2,TRUE,FALSE
1,9,learned,75,8,2,1,10,1,1,TRUE,3722.300000488758,2,NA,2,2,TRUE,FALSE
1,9,learned,76,8,5,1,10,1,1,TRUE,4310.599997639656,4,NA,4,4,TRUE,FALSE
1,9,learned,77,3,1,2,5,2,2,TRUE,7011.100001633167,2,4,2,2,FALSE,FALSE
1,9,learned,78,9,4,8,11,8,8,TRUE,8172.600001096725,4,7,4,4,FALSE,FALSE
1,9,learned,79,1,6,2,8,2,2,TRUE,7846.300002187491,3,NA,3,3,TRUE,FALSE
1,9,learned,80,4,10,2,6,2,2,TRUE,6561.299998313189,4,8,4,4,FALSE,FALSE
1,9,learned,81,5,1,4,7,4,4,TRUE,2407.0000015199184,3,5,3,3,FALSE,FALSE
1,9,learned,82,11,8,12,13,12,12,TRUE,4382.199998944998,3,4,3,2,FALSE,FALSE
1,9,learned,83,6,2,4,7,4,4,TRUE,6651.600003242493,2,4,2,2,FALSE,FALSE
1,9,learned,84,3,8,2,4,2,2,TRUE,3344.6000032126904,3,4,3,3,FALSE,FALSE
1,9,learned,85,3,8,4,5,4,4,TRUE,2634.899999946356,4,5,4,3,FALSE,FALSE
1,9,learned,86,2,5,3,1,3,3,TRUE,3424.499999731779,2,NA,2,2,TRUE,FALSE
1,9,learned,87,4,10,3,5,3,3,TRUE,9121.799997985365,5,6,5,4,FALSE,FALSE
1,9,learned,88,4,1,2,5,2,2,TRUE,3316.899999976158,2,4,2,2,FALSE,FALSE
1,9,learned,89,4,1,3,6,3,3,TRUE,5649.19999986887,3,6,3,2,FALSE,FALSE
1,9,learned,90,11,2,12,13,12,12,TRUE,6735.5000004172325,5,6,5,4,FALSE,FALSE
1,9,learned,91,6,1,4,7,4,4,TRUE,4948.20000231266,3,5,3,3,FALSE,FALSE
1,9,learned,92,2,9,1,3,1,1,TRUE,2505.8999992907047,3,NA,3,3,TRUE,FALSE
1,9,learned,93,1,11,8,2,8,8,TRUE,15065.29999896884,3,NA,3,3,TRUE,FALSE
1,9,learned,94,2,12,1,4,1,4,FALSE,4589.099999517202,4,NA,4,4,TRUE,FALSE
1,9,learned,95,10,9,8,12,8,8,TRUE,5389.400001615286,2,3,2,2,FALSE,FALSE
1,9,learned,96,12,9,10,13,NA,13,TRUE,6490.299999713898,3,3,3,2,FALSE,TRUE
1,9,learned,97,3,7,4,2,4,4,TRUE,2007.3000006377697,3,4,3,2,FALSE,FALSE
1,9,learned,98,4,10,3,6,3,3,TRUE,5537.299998104572,5,8,5,4,FALSE,FALSE
1,9,learned,99,2,11,1,3,1,1,TRUE,4770.80000191927,4,NA,4,4,TRUE,FALSE
1,9,learned,100,4,7,3,2,3,3,TRUE,5736.399997025728,3,4,3,2,FALSE,FALSE
1,9,learned,101,3,1,4,5,4,4,TRUE,4477.399997413158,3,4,3,2,FALSE,FALSE
1,9,learned,102,6,8,4,7,4,4,TRUE,3122.0999993383884,4,6,4,4,FALSE,FALSE
1,9,learned,103,4,9,3,6,3,3,TRUE,5681.500002741814,5,8,5,4,FALSE,FALSE
1,9,learned,104,1,9,8,2,8,8,TRUE,3050.799999386072,2,NA,2,2,TRUE,FALSE
1,9,learned,105,5,6,7,3,7,7,TRUE,1984.2000007629397,2,3,2,2,FALSE,FALSE
1,9,learned,106,8,11,9,10,9,10,FALSE,2061.200000345707,2,3,2,2,FALSE,FALSE
1,9,learned,107,6,3,4,7,4,4,TRUE,3422.3999977111816,2,3,2,2,FALSE,FALSE
1,9,learned,108,7,4,5,6,NA,5,TRUE,3722.500000149011,2,2,2,2,FALSE,TRUE
1,9,learned,109,11,8,9,12,9,9,TRUE,4806.099999696016,2,3,2,2,FALSE,FALSE
1,9,learned,110,2,7,3,1,3,3,TRUE,4788.499999791384,3,NA,3,3,TRUE,FALSE
1,9,learned,111,11,2,9,12,9,9,TRUE,7693.499997258186,4,5,4,4,FALSE,FALSE
