measurement_id,sub_id,network,trial,startpoint_id,endpoint_id,opt1_id,opt2_id,correct_choice,sub_choice,correct,rt,dist_opt1,dist_opt2,shortest_path_given_opts,shortest_path_given_start_end,one_impossible_option,two_correct_options
1,1,learned,1,4,9,2,5,2,2,TRUE,9646.79999999702,4,6,4,4,FALSE,FALSE
1,1,learned,2,1,12,8,2,8,8,TRUE,2999.20000000298,3,NA,3,3,TRUE,FALSE
1,1,learned,3,8,12,10,1,10,1,FALSE,4022.900000005961,2,NA,2,2,TRUE,FALSE
1,1,learned,4,12,2,10,13,10,13,FALSE,27819,4,6,4,4,FALSE,FALSE
1,1,learned,5,4,1,5,6,5,5,TRUE,4574.600000008941,4,6,4,2,FALSE,FALSE
1,1,learned,6,3,10,2,4,2,2,TRUE,15702.79999999702,4,5,4,4,FALSE,FALSE
1,1,learned,7,11,10,9,13,NA,13,TRUE,6190.70000000298,3,3,3,2,FALSE,TRUE
1,1,learned,8,3,6,4,5,4,4,TRUE,3710.79999999702,2,3,2,2,FALSE,FALSE
1,1,learned,9,4,9,2,6,2,6,FALSE,10731,4,8,4,4,FALSE,FALSE
1,1,learned,10,10,3,8,12,8,12,FALSE,7690.79999999702,4,7,4,4,FALSE,FALSE
1,1,learned,11,2,6,4,1,4,4,TRUE,4182.899999991059,2,NA,2,2,TRUE,FALSE
1,1,learned,12,8,2,1,9,1,1,TRUE,5934.70000000298,2,NA,2,2,TRUE,FALSE
1,1,learned,13,1,10,8,2,8,8,TRUE,3702.79999999702,2,NA,2,2,TRUE,FALSE
1,1,learned,14,1,4,2,8,2,2,TRUE,3878.5,2,NA,2,2,TRUE,FALSE
1,1,learned,15,3,8,2,5,2,2,TRUE,6830.70000000298,3,5,3,3,FALSE,FALSE
1,1,learned,16,3,7,5,2,5,2,FALSE,12366.79999999702,2,4,2,2,FALSE,FALSE
1,1,learned,17,3,8,2,4,2,2,TRUE,6694.5,3,4,3,3,FALSE,FALSE
1,1,learned,18,2,7,4,1,4,1,FALSE,4190.600000008941,3,NA,3,3,TRUE,FALSE
1,1,learned,19,3,9,2,4,2,2,TRUE,14193.19999998808,4,5,4,4,FALSE,FALSE
1,1,learned,20,5,6,4,3,4,4,TRUE,1819.5999999940395,2,3,2,2,FALSE,FALSE
1,1,learned,21,1,11,8,2,8,8,TRUE,13935.19999998808,3,NA,3,3,TRUE,FALSE
1,1,learned,22,4,8,3,5,3,5,FALSE,4958.70000000298,4,5,4,3,FALSE,FALSE
1,1,learned,23,4,10,3,5,3,5,FALSE,8950.70000000298,5,6,5,4,FALSE,FALSE
1,1,learned,24,8,11,9,10,9,10,FALSE,4714.600000008941,2,3,2,2,FALSE,FALSE
1,1,learned,25,13,8,11,12,NA,12,TRUE,7377.5,3,3,3,3,FALSE,TRUE
1,1,learned,26,8,13,9,1,9,9,TRUE,15126.79999999702,3,NA,3,3,TRUE,FALSE
1,1,learned,27,8,6,1,10,1,1,TRUE,10719.09999999404,4,NA,4,4,TRUE,FALSE
1,1,learned,28,2,12,1,4,1,4,FALSE,9478.79999999702,4,NA,4,4,TRUE,FALSE
1,1,learned,29,7,1,5,6,NA,6,TRUE,7494.90000000596,4,4,4,4,FALSE,TRUE
1,1,learned,30,8,4,1,9,1,1,TRUE,6982.79999999702,3,NA,3,3,TRUE,FALSE
1,1,learned,31,4,9,3,6,3,6,FALSE,6702.600000008941,5,8,5,4,FALSE,FALSE
1,1,learned,32,8,12,10,9,10,10,TRUE,3270.79999999702,2,3,2,2,FALSE,FALSE
1,1,learned,33,2,9,1,3,1,1,TRUE,3374.70000000298,3,NA,3,3,TRUE,FALSE
1,1,learned,34,11,8,9,13,9,13,FALSE,15642.79999999702,2,4,2,2,FALSE,FALSE
1,1,learned,35,7,3,5,6,5,5,TRUE,7118.70000000298,2,3,2,2,FALSE,FALSE
1,1,learned,36,4,1,3,5,3,3,TRUE,9958.89999999106,3,4,3,2,FALSE,FALSE
1,1,learned,37,12,2,10,11,10,10,TRUE,5958.70000000298,4,5,4,4,FALSE,FALSE
1,1,learned,38,3,1,4,5,4,4,TRUE,10734.89999999106,3,4,3,2,FALSE,FALSE
1,1,learned,39,13,9,11,12,11,11,TRUE,2114.79999999702,2,3,2,2,FALSE,FALSE
1,1,learned,40,5,1,4,7,4,7,FALSE,5662.9000000059605,3,5,3,3,FALSE,FALSE
1,1,learned,41,4,1,2,6,2,6,FALSE,3950.79999999702,2,6,2,2,FALSE,FALSE
1,1,learned,42,5,2,4,7,4,4,TRUE,3390.70000000298,2,4,2,2,FALSE,FALSE
1,1,learned,43,12,2,11,13,11,13,FALSE,9782.89999999106,5,6,5,4,FALSE,FALSE
1,1,learned,44,9,2,8,11,8,8,TRUE,18318.79999999702,3,6,3,3,FALSE,FALSE
1,1,learned,45,4,8,2,5,2,2,TRUE,4807.9000000059605,3,5,3,3,FALSE,FALSE
1,1,learned,46,2,9,1,4,1,1,TRUE,4432.300000011921,3,NA,3,3,TRUE,FALSE
1,1,learned,47,8,3,1,9,1,9,FALSE,11198.79999999702,3,NA,3,3,TRUE,FALSE
1,1,learned,48,5,8,4,7,4,7,FALSE,11166.79999999702,4,6,4,4,FALSE,FALSE
1,1,learned,49,3,6,4,2,4,4,TRUE,5302.600000008941,2,3,2,2,FALSE,FALSE
1,1,learned,50,8,5,1,10,1,1,TRUE,8570.79999999702,4,NA,4,4,TRUE,FALSE
1,1,learned,51,6,5,4,7,NA,4,TRUE,3966.70000000298,2,2,2,2,FALSE,TRUE
1,1,learned,52,4,7,5,2,5,2,FALSE,3694.79999999702,2,4,2,2,FALSE,FALSE
1,1,learned,53,12,8,10,11,10,10,TRUE,3422.6000000089407,2,3,2,2,FALSE,FALSE
1,1,learned,54,3,1,2,5,2,2,TRUE,3686.6000000089407,2,4,2,2,FALSE,FALSE
1,1,learned,55,11,1,9,13,9,9,TRUE,5398.600000008941,3,5,3,3,FALSE,FALSE
1,1,learned,56,3,9,4,5,4,4,TRUE,4126.899999991059,5,6,5,4,FALSE,FALSE
1,1,learned,57,3,10,4,5,4,4,TRUE,13350.69999998808,5,6,5,4,FALSE,FALSE
1,1,learned,58,5,2,3,4,NA,4,TRUE,3714.79999999702,2,2,2,2,FALSE,TRUE
1,1,learned,59,9,4,8,11,8,8,TRUE,16650.89999999106,4,7,4,4,FALSE,FALSE
1,1,learned,60,4,8,3,6,3,3,TRUE,6982.79999999702,4,7,4,3,FALSE,FALSE
1,1,learned,61,2,6,3,1,3,3,TRUE,5894.5,3,NA,3,2,TRUE,FALSE
1,1,learned,62,12,1,11,13,11,11,TRUE,15198.79999999702,4,5,4,3,FALSE,FALSE
1,1,learned,63,4,7,3,2,3,2,FALSE,3162.3999999910593,3,4,3,2,FALSE,FALSE
1,1,learned,64,3,7,5,4,5,5,TRUE,3974.900000005961,2,3,2,2,FALSE,FALSE
1,1,learned,65,12,1,10,11,10,11,FALSE,8102.70000000298,3,4,3,3,FALSE,FALSE
1,1,learned,66,3,9,2,5,2,2,TRUE,7854.79999999702,4,6,4,4,FALSE,FALSE
1,1,learned,67,11,2,12,13,12,12,TRUE,25195.19999998808,5,6,5,4,FALSE,FALSE
1,1,learned,68,4,7,5,6,NA,6,TRUE,6630.79999999702,2,2,2,2,FALSE,TRUE
1,1,learned,69,8,2,1,10,1,1,TRUE,7650.79999999702,2,NA,2,2,TRUE,FALSE
1,1,learned,70,10,9,8,12,8,8,TRUE,3584.9000000059605,2,3,2,2,FALSE,FALSE
1,1,learned,71,11,8,12,13,12,12,TRUE,8383,3,4,3,2,FALSE,FALSE
1,1,learned,72,1,9,8,2,8,8,TRUE,4465.29999999702,2,NA,2,2,TRUE,FALSE
1,1,learned,73,5,2,3,7,3,3,TRUE,3326.70000000298,2,4,2,2,FALSE,FALSE
1,1,learned,74,1,3,2,8,2,8,FALSE,5734.899999991059,2,NA,2,2,TRUE,FALSE
1,1,learned,75,2,8,1,3,1,1,TRUE,4342.79999999702,2,NA,2,2,TRUE,FALSE
1,1,learned,76,4,7,6,3,6,6,TRUE,2486.6000000089407,2,3,2,2,FALSE,FALSE
1,1,learned,77,11,1,9,12,9,9,TRUE,4102.9000000059605,3,4,3,3,FALSE,FALSE
1,1,learned,78,3,7,4,2,4,4,TRUE,4288.100000008941,3,4,3,2,FALSE,FALSE
1,1,learned,79,3,1,2,4,2,2,TRUE,10022.89999999106,2,3,2,2,FALSE,FALSE
1,1,learned,80,5,6,4,7,NA,4,TRUE,4334.600000008941,2,2,2,2,FALSE,TRUE
1,1,learned,81,1,5,2,8,2,2,TRUE,12250.79999999702,3,NA,3,3,TRUE,FALSE
1,1,learned,82,2,7,3,1,3,1,FALSE,5078.5999999940395,3,NA,3,3,TRUE,FALSE
1,1,learned,83,12,9,10,13,NA,13,TRUE,4910.70000000298,3,3,3,2,FALSE,TRUE
1,1,learned,84,4,8,2,3,2,2,TRUE,3615,3,4,3,3,FALSE,FALSE
1,1,learned,85,8,3,1,10,1,1,TRUE,8550.70000000298,3,NA,3,3,TRUE,FALSE
1,1,learned,86,1,7,2,8,2,2,TRUE,9030.79999999702,4,NA,4,4,TRUE,FALSE
1,1,learned,87,12,1,10,13,10,13,FALSE,4894.9000000059605,3,5,3,3,FALSE,FALSE
1,1,learned,88,2,12,1,3,1,1,TRUE,8910.79999999702,4,NA,4,4,TRUE,FALSE
1,1,learned,89,8,13,9,10,NA,10,TRUE,2726.5,3,3,3,3,FALSE,TRUE
1,1,learned,90,2,11,1,4,1,1,TRUE,8303.09999999404,4,NA,4,4,TRUE,FALSE
1,1,learned,91,4,7,6,2,6,6,TRUE,2598.70000000298,2,4,2,2,FALSE,FALSE
1,1,learned,92,2,7,3,4,NA,4,TRUE,7630.90000000596,3,3,3,3,FALSE,TRUE
1,1,learned,93,8,12,9,1,9,9,TRUE,4582.5999999940395,3,NA,3,2,TRUE,FALSE
1,1,learned,94,3,8,4,5,4,5,FALSE,5566.70000000298,4,5,4,3,FALSE,FALSE
1,1,learned,95,11,8,9,12,9,12,FALSE,3310.70000000298,2,3,2,2,FALSE,FALSE
1,1,learned,96,4,10,2,6,2,2,TRUE,4302.70000000298,4,8,4,4,FALSE,FALSE
1,1,learned,97,6,1,4,7,4,7,FALSE,6786.600000008941,3,5,3,3,FALSE,FALSE
1,1,learned,98,4,1,2,5,2,2,TRUE,5494.600000008941,2,4,2,2,FALSE,FALSE
1,1,learned,99,2,10,1,4,1,1,TRUE,2710.6000000089407,3,NA,3,3,TRUE,FALSE
1,1,learned,100,5,8,3,7,3,7,FALSE,3534.6000000089407,4,6,4,4,FALSE,FALSE
1,1,learned,101,6,3,4,7,4,4,TRUE,3230.70000000298,2,3,2,2,FALSE,FALSE
1,1,learned,102,6,2,4,7,4,4,TRUE,2726.70000000298,2,4,2,2,FALSE,FALSE
1,1,learned,103,12,9,11,13,11,11,TRUE,2615,2,3,2,2,FALSE,FALSE
1,1,learned,104,4,9,5,6,5,6,FALSE,6150.70000000298,6,8,6,4,FALSE,FALSE
1,1,learned,105,4,1,2,3,2,2,TRUE,3842.6000000089407,2,3,2,2,FALSE,FALSE
1,1,learned,106,6,8,4,7,4,4,TRUE,11342.79999999702,4,6,4,4,FALSE,FALSE
1,1,learned,107,11,2,9,12,9,9,TRUE,17694.90000000596,4,5,4,4,FALSE,FALSE
1,1,learned,108,13,1,11,12,NA,11,TRUE,7846.79999999702,4,4,4,4,FALSE,TRUE
1,1,learned,109,5,8,3,4,NA,3,TRUE,5438.5,4,4,4,4,FALSE,TRUE
1,1,learned,110,12,9,11,10,11,11,TRUE,3606.70000000298,2,3,2,2,FALSE,FALSE
1,1,learned,111,4,10,3,6,3,3,TRUE,9047.19999998808,5,8,5,4,FALSE,FALSE
1,1,learned,112,10,4,8,12,8,8,TRUE,4814.70000000298,4,7,4,4,FALSE,FALSE
1,1,learned,113,4,7,5,3,5,5,TRUE,5278.70000000298,2,3,2,2,FALSE,FALSE
1,1,learned,114,8,13,10,1,10,1,FALSE,5606.79999999702,3,NA,3,3,TRUE,FALSE
1,1,learned,115,7,2,5,6,NA,6,TRUE,4214.70000000298,3,3,3,3,FALSE,TRUE
1,1,learned,116,4,9,3,5,3,5,FALSE,9142.79999999702,5,6,5,4,FALSE,FALSE
1,1,learned,117,9,1,8,11,8,8,TRUE,5310.70000000298,2,5,2,2,FALSE,FALSE
1,1,learned,118,8,6,1,9,1,1,TRUE,11774.79999999702,4,NA,4,4,TRUE,FALSE
1,1,learned,119,2,10,1,3,1,1,TRUE,4958.70000000298,3,NA,3,3,TRUE,FALSE
1,1,learned,120,4,8,2,6,2,2,TRUE,8097,3,7,3,3,FALSE,FALSE
1,1,learned,121,2,5,3,1,3,3,TRUE,7110.70000000298,2,NA,2,2,TRUE,FALSE
1,1,learned,122,2,6,4,3,4,4,TRUE,2926.9000000059605,2,3,2,2,FALSE,FALSE
1,1,learned,123,4,1,3,6,3,3,TRUE,6390.70000000298,3,6,3,2,FALSE,FALSE
1,1,learned,124,9,10,8,11,8,8,TRUE,14408.60000000894,2,3,2,2,FALSE,FALSE
1,1,learned,125,3,6,2,5,NA,5,TRUE,4839.5999999940395,3,3,3,2,FALSE,TRUE
1,1,learned,126,8,4,1,10,1,1,TRUE,10238.70000000298,3,NA,3,3,TRUE,FALSE
1,1,learned,127,10,1,8,12,8,8,TRUE,3870.5,2,5,2,2,FALSE,FALSE
1,1,learned,128,10,11,12,8,12,12,TRUE,3822.70000000298,2,3,2,2,FALSE,FALSE
1,1,learned,129,11,10,12,13,12,12,TRUE,5174.600000008941,2,3,2,2,FALSE,FALSE
1,1,learned,130,13,10,12,11,12,12,TRUE,4086.6000000089407,2,3,2,2,FALSE,FALSE
1,1,learned,131,5,1,3,4,NA,3,TRUE,8726.70000000298,3,3,3,3,FALSE,TRUE
1,1,learned,132,7,4,5,6,NA,6,TRUE,4206.600000008941,2,2,2,2,FALSE,TRUE
1,1,learned,133,2,5,4,1,4,4,TRUE,3358.3999999910593,2,NA,2,2,TRUE,FALSE
1,1,learned,134,9,3,8,11,8,8,TRUE,13318.70000000298,4,7,4,4,FALSE,FALSE
1,1,learned,135,9,13,11,8,11,11,TRUE,4414.600000008941,2,4,2,2,FALSE,FALSE
1,1,learned,136,5,6,7,3,7,7,TRUE,4654.600000008941,2,3,2,2,FALSE,FALSE
1,1,learned,137,4,10,5,6,5,5,TRUE,6998.79999999702,6,8,6,4,FALSE,FALSE
1,1,learned,138,2,11,1,3,1,1,TRUE,8926.79999999702,4,NA,4,4,TRUE,FALSE
1,1,learned,139,10,2,8,12,8,8,TRUE,6918.600000008941,3,6,3,3,FALSE,FALSE
1,1,learned,140,11,2,9,13,9,9,TRUE,7406.600000008941,4,6,4,4,FALSE,FALSE
1,1,learned,141,2,8,1,4,1,4,FALSE,3462.699999988079,2,NA,2,2,TRUE,FALSE
1,1,learned,142,2,5,3,4,NA,3,TRUE,3590.9000000059605,2,2,2,2,FALSE,TRUE
1,1,learned,143,8,11,9,1,9,9,TRUE,5034.600000008941,2,NA,2,2,TRUE,FALSE
1,1,learned,144,1,6,2,8,2,2,TRUE,16050.90000000596,3,NA,3,3,TRUE,FALSE
1,1,learned,145,4,10,2,3,2,2,TRUE,6958.699999988079,4,5,4,4,FALSE,FALSE
1,1,learned,146,4,9,2,3,2,2,TRUE,5142.70000000298,4,5,4,4,FALSE,FALSE
1,1,learned,147,12,8,10,13,10,10,TRUE,3734.5,2,4,2,2,FALSE,FALSE
1,1,learned,148,3,10,2,5,2,5,FALSE,6766.70000000298,4,6,4,4,FALSE,FALSE
1,1,learned,149,4,8,5,6,5,5,TRUE,4246.5,5,7,5,3,FALSE,FALSE
1,1,learned,150,5,1,3,7,3,7,FALSE,5102.79999999702,3,5,3,3,FALSE,FALSE
1,1,learned,151,8,5,1,9,1,9,FALSE,8954.70000000298,4,NA,4,4,TRUE,FALSE
1,1,learned,152,8,11,10,1,10,10,TRUE,5310.699999988079,3,NA,3,2,TRUE,FALSE
1,1,learned,153,12,8,11,13,11,11,TRUE,16558.90000000596,3,4,3,2,FALSE,FALSE
1,1,learned,154,11,1,12,13,12,12,TRUE,12006.69999998808,4,5,4,3,FALSE,FALSE
1,1,learned,155,10,13,12,8,12,12,TRUE,3526.5,2,4,2,2,FALSE,FALSE
1,1,learned,156,1,13,8,2,8,8,TRUE,15369.19999998808,4,NA,4,4,TRUE,FALSE
1,1,learned,157,11,10,12,9,12,12,TRUE,2510.6000000089407,2,3,2,2,FALSE,FALSE
1,1,learned,158,9,12,11,8,11,11,TRUE,4374.9000000059605,2,3,2,2,FALSE,FALSE
1,1,learned,159,4,10,2,5,2,5,FALSE,7742.70000000298,4,6,4,4,FALSE,FALSE
1,2,learned,1,8,5,1,10,1,1,TRUE,7590.5999999996275,4,NA,4,4,TRUE,FALSE
1,2,learned,2,3,6,4,2,4,2,FALSE,6570.600000000093,2,3,2,2,FALSE,FALSE
1,2,learned,3,8,12,9,1,9,9,TRUE,10250.599999999627,3,NA,3,2,TRUE,FALSE
1,2,learned,4,4,10,3,6,3,6,FALSE,15506.700000000186,5,8,5,4,FALSE,FALSE
1,2,learned,5,4,1,3,5,3,3,TRUE,7043.4000000003725,3,4,3,2,FALSE,FALSE
1,2,learned,6,6,3,4,7,4,4,TRUE,4002.400000000373,2,3,2,2,FALSE,FALSE
1,2,learned,7,4,7,6,2,6,6,TRUE,3794.5,2,4,2,2,FALSE,FALSE
1,2,learned,8,10,1,8,12,8,8,TRUE,9050.399999999909,2,5,2,2,FALSE,FALSE
1,2,learned,9,11,2,9,12,9,12,FALSE,10182.099999999627,4,5,4,4,FALSE,FALSE
1,2,learned,10,1,7,2,8,2,8,FALSE,16426.899999999907,4,NA,4,4,TRUE,FALSE
1,2,learned,11,8,11,9,1,9,1,FALSE,16290.599999999627,2,NA,2,2,TRUE,FALSE
1,2,learned,12,13,10,12,11,12,11,FALSE,11002.600000000091,2,3,2,2,FALSE,FALSE
1,2,learned,13,11,8,9,12,9,9,TRUE,3674.3000000002794,2,3,2,2,FALSE,FALSE
1,2,learned,14,4,9,2,5,2,5,FALSE,11210.799999999814,4,6,4,4,FALSE,FALSE
1,2,learned,15,8,6,1,10,1,1,TRUE,9306.5,4,NA,4,4,TRUE,FALSE
1,2,learned,16,4,1,2,5,2,2,TRUE,16434.600000000093,2,4,2,2,FALSE,FALSE
1,2,learned,17,4,10,3,5,3,3,TRUE,5066.5,5,6,5,4,FALSE,FALSE
1,2,learned,18,3,7,5,2,5,5,TRUE,2586.4000000003725,2,4,2,2,FALSE,FALSE
1,2,learned,19,2,8,1,4,1,1,TRUE,1914.3999999999069,2,NA,2,2,TRUE,FALSE
1,2,learned,20,9,2,8,11,8,8,TRUE,16010.899999999909,3,6,3,3,FALSE,FALSE
1,2,learned,21,3,1,2,4,2,4,FALSE,5590.4000000003725,2,3,2,2,FALSE,FALSE
1,2,learned,22,2,5,3,4,NA,3,TRUE,3334.399999999907,2,2,2,2,FALSE,TRUE
1,2,learned,23,1,3,2,8,2,2,TRUE,9910,2,NA,2,2,TRUE,FALSE
1,2,learned,24,12,9,11,13,11,13,FALSE,3890.400000000373,2,3,2,2,FALSE,FALSE
1,2,learned,25,5,8,3,4,NA,4,TRUE,8668.299999999814,4,4,4,4,FALSE,TRUE
1,2,learned,26,5,2,3,7,3,3,TRUE,2866.399999999907,2,4,2,2,FALSE,FALSE
1,2,learned,27,4,8,5,6,5,6,FALSE,5446.700000000186,5,7,5,3,FALSE,FALSE
1,2,learned,28,2,5,4,1,4,4,TRUE,3186.4000000003725,2,NA,2,2,TRUE,FALSE
1,2,learned,29,4,1,5,6,5,6,FALSE,4162.5,4,6,4,2,FALSE,FALSE
1,2,learned,30,4,9,3,6,3,6,FALSE,3722.3000000002794,5,8,5,4,FALSE,FALSE
1,2,learned,31,11,2,9,13,9,13,FALSE,14178.599999999627,4,6,4,4,FALSE,FALSE
1,2,learned,32,8,5,1,9,1,1,TRUE,16154.600000000091,4,NA,4,4,TRUE,FALSE
1,2,learned,33,2,9,1,3,1,1,TRUE,3042.8000000002794,3,NA,3,3,TRUE,FALSE
1,2,learned,34,3,6,4,5,4,5,FALSE,4434.800000000279,2,3,2,2,FALSE,FALSE
1,2,learned,35,8,13,9,10,NA,10,TRUE,4282.5,3,3,3,3,FALSE,TRUE
1,2,learned,36,12,2,10,13,10,13,FALSE,4698.4000000003725,4,6,4,4,FALSE,FALSE
1,2,learned,37,11,8,12,13,12,12,TRUE,3530.4000000003725,3,4,3,2,FALSE,FALSE
1,2,learned,38,2,6,3,1,3,3,TRUE,8306.30000000028,3,NA,3,2,TRUE,FALSE
1,2,learned,39,5,1,3,4,NA,4,TRUE,9086.69999999972,3,3,3,3,FALSE,TRUE
1,2,learned,40,2,6,4,1,4,4,TRUE,18300.599999999627,2,NA,2,2,TRUE,FALSE
1,2,learned,41,8,3,1,10,1,1,TRUE,2642.4000000003725,3,NA,3,3,TRUE,FALSE
1,2,learned,42,2,10,1,3,1,1,TRUE,2018.8000000002792,3,NA,3,3,TRUE,FALSE
1,2,learned,43,4,8,3,6,3,3,TRUE,4935.199999999721,4,7,4,3,FALSE,FALSE
1,2,learned,44,3,10,2,5,2,5,FALSE,9442.600000000091,4,6,4,4,FALSE,FALSE
1,2,learned,45,3,10,2,4,2,4,FALSE,4170.5,4,5,4,4,FALSE,FALSE
1,2,learned,46,2,5,3,1,3,3,TRUE,5402.5,2,NA,2,2,TRUE,FALSE
1,2,learned,47,8,13,10,1,10,1,FALSE,6542.399999999907,3,NA,3,3,TRUE,FALSE
1,2,learned,48,5,6,4,3,4,3,FALSE,7714.699999999721,2,3,2,2,FALSE,FALSE
1,2,learned,49,13,1,11,12,NA,11,TRUE,15094.599999999627,4,4,4,4,FALSE,TRUE
1,2,learned,50,9,4,8,11,8,8,TRUE,2997.7000000001863,4,7,4,4,FALSE,FALSE
1,2,learned,51,5,1,3,7,3,3,TRUE,9378.799999999814,3,5,3,3,FALSE,FALSE
1,2,learned,52,8,2,1,10,1,1,TRUE,2874.899999999907,2,NA,2,2,TRUE,FALSE
1,2,learned,53,3,1,4,5,4,5,FALSE,8906.599999999627,3,4,3,2,FALSE,FALSE
1,2,learned,54,4,10,5,6,5,5,TRUE,10090.599999999627,6,8,6,4,FALSE,FALSE
1,2,learned,55,4,7,5,6,NA,5,TRUE,1654.5,2,2,2,2,FALSE,TRUE
1,2,learned,56,8,12,10,9,10,10,TRUE,5229.700000000186,2,3,2,2,FALSE,FALSE
1,2,learned,57,5,8,4,7,4,7,FALSE,5790.5,4,6,4,4,FALSE,FALSE
1,2,learned,58,5,8,3,7,3,3,TRUE,4266.5,4,6,4,4,FALSE,FALSE
1,2,learned,59,13,8,11,12,NA,12,TRUE,3170.4000000003725,3,3,3,3,FALSE,TRUE
1,2,learned,60,3,9,2,4,2,2,TRUE,5038.5,4,5,4,4,FALSE,FALSE
1,2,learned,61,5,6,4,7,NA,7,TRUE,9034.599999999627,2,2,2,2,FALSE,TRUE
1,2,learned,62,6,2,4,7,4,7,FALSE,5002.300000000279,2,4,2,2,FALSE,FALSE
1,2,learned,63,8,12,10,1,10,1,FALSE,2698.3000000002794,2,NA,2,2,TRUE,FALSE
1,2,learned,64,12,8,11,13,11,13,FALSE,1866.5,3,4,3,2,FALSE,FALSE
1,2,learned,65,9,3,8,11,8,11,FALSE,2975.100000000093,4,7,4,4,FALSE,FALSE
1,2,learned,66,12,9,10,13,NA,10,TRUE,4090.400000000373,3,3,3,2,FALSE,TRUE
1,2,learned,67,10,9,8,12,8,12,FALSE,14754.700000000186,2,3,2,2,FALSE,FALSE
1,2,learned,68,5,6,7,3,7,7,TRUE,3850.5,2,3,2,2,FALSE,FALSE
1,2,learned,69,11,2,12,13,12,13,FALSE,4994.5,5,6,5,4,FALSE,FALSE
1,2,learned,70,10,11,12,8,12,8,FALSE,8566.5,2,3,2,2,FALSE,FALSE
1,2,learned,71,1,10,8,2,8,8,TRUE,6394.5,2,NA,2,2,TRUE,FALSE
1,2,learned,72,7,4,5,6,NA,5,TRUE,2826.4000000003725,2,2,2,2,FALSE,TRUE
1,2,learned,73,12,1,11,13,11,13,FALSE,6558.600000000093,4,5,4,3,FALSE,FALSE
1,2,learned,74,8,11,9,10,9,10,FALSE,6106.5999999996275,2,3,2,2,FALSE,FALSE
1,2,learned,75,3,10,4,5,4,5,FALSE,3166.399999999907,5,6,5,4,FALSE,FALSE
1,2,learned,76,4,7,6,3,6,3,FALSE,8290.69999999972,2,3,2,2,FALSE,FALSE
1,2,learned,77,10,3,8,12,8,12,FALSE,2378.4000000003725,4,7,4,4,FALSE,FALSE
1,2,learned,78,1,13,8,2,8,8,TRUE,2794.5,4,NA,4,4,TRUE,FALSE
1,2,learned,79,4,10,2,5,2,2,TRUE,2930.399999999907,4,6,4,4,FALSE,FALSE
1,2,learned,80,1,6,2,8,2,8,FALSE,3930.7000000001863,3,NA,3,3,TRUE,FALSE
1,2,learned,81,4,8,2,6,2,2,TRUE,2194.4000000003725,3,7,3,3,FALSE,FALSE
1,2,learned,82,3,9,4,5,4,5,FALSE,2186.600000000093,5,6,5,4,FALSE,FALSE
1,2,learned,83,4,8,2,5,2,2,TRUE,2602.8000000002794,3,5,3,3,FALSE,FALSE
1,2,learned,84,2,12,1,4,1,4,FALSE,1714.3999999999069,4,NA,4,4,TRUE,FALSE
1,2,learned,85,6,1,4,7,4,7,FALSE,3543,3,5,3,3,FALSE,FALSE
1,2,learned,86,11,10,12,13,12,13,FALSE,2204.2000000001863,2,3,2,2,FALSE,FALSE
1,2,learned,87,2,12,1,3,1,1,TRUE,5058.700000000186,4,NA,4,4,TRUE,FALSE
1,2,learned,88,9,10,8,11,8,11,FALSE,2742.7000000001863,2,3,2,2,FALSE,FALSE
1,2,learned,89,9,12,11,8,11,11,TRUE,1378.3000000002794,2,3,2,2,FALSE,FALSE
1,2,learned,90,3,7,5,4,5,5,TRUE,6106.800000000279,2,3,2,2,FALSE,FALSE
1,2,learned,91,9,13,11,8,11,11,TRUE,4274.300000000279,2,4,2,2,FALSE,FALSE
1,2,learned,92,3,8,4,5,4,5,FALSE,7402.5,4,5,4,3,FALSE,FALSE
1,2,learned,93,4,8,2,3,2,3,FALSE,3362.3000000002794,3,4,3,3,FALSE,FALSE
1,2,learned,94,4,10,2,6,2,2,TRUE,7610.700000000186,4,8,4,4,FALSE,FALSE
1,2,learned,95,8,13,9,1,9,1,FALSE,3266.3000000002794,3,NA,3,3,TRUE,FALSE
1,2,learned,96,12,2,10,11,10,10,TRUE,2242.7000000001863,4,5,4,4,FALSE,FALSE
1,2,learned,97,2,7,4,1,4,4,TRUE,4754.4000000003725,3,NA,3,3,TRUE,FALSE
1,2,learned,98,12,8,10,11,10,10,TRUE,8002.699999999721,2,3,2,2,FALSE,FALSE
1,2,learned,99,4,8,3,5,3,5,FALSE,7468.100000000093,4,5,4,3,FALSE,FALSE
1,2,learned,100,5,1,4,7,4,4,TRUE,2850.399999999907,3,5,3,3,FALSE,FALSE
1,2,learned,101,2,7,3,4,NA,4,TRUE,17842.600000000093,3,3,3,3,FALSE,TRUE
1,2,learned,102,1,5,2,8,2,8,FALSE,3210.4000000003725,3,NA,3,3,TRUE,FALSE
1,2,learned,103,12,2,11,13,11,13,FALSE,3978.7000000001863,5,6,5,4,FALSE,FALSE
1,2,learned,104,11,1,9,12,9,9,TRUE,5922.5,3,4,3,3,FALSE,FALSE
1,2,learned,105,4,7,5,3,5,5,TRUE,12714.899999999909,2,3,2,2,FALSE,FALSE
1,2,learned,106,1,4,2,8,2,8,FALSE,6042.5,2,NA,2,2,TRUE,FALSE
1,2,learned,107,3,8,2,4,2,4,FALSE,3258.3000000002794,3,4,3,3,FALSE,FALSE
1,2,learned,108,4,1,2,3,2,2,TRUE,2530.7000000001863,2,3,2,2,FALSE,FALSE
1,2,learned,109,3,8,2,5,2,5,FALSE,1858.7000000001865,3,5,3,3,FALSE,FALSE
1,2,learned,110,4,1,2,6,2,2,TRUE,1706.7000000001865,2,6,2,2,FALSE,FALSE
1,2,learned,111,7,1,5,6,NA,5,TRUE,1290.7000000001865,4,4,4,4,FALSE,TRUE
1,2,learned,112,4,1,3,6,3,3,TRUE,2647.600000000093,3,6,3,2,FALSE,FALSE
1,2,learned,113,10,13,12,8,12,12,TRUE,2382.4000000003725,2,4,2,2,FALSE,FALSE
1,2,learned,114,4,9,3,5,3,5,FALSE,4970.4000000003725,5,6,5,4,FALSE,FALSE
1,2,learned,115,11,10,9,13,NA,13,TRUE,3338.3000000002794,3,3,3,2,FALSE,TRUE
1,2,learned,116,1,11,8,2,8,2,FALSE,2154.399999999907,3,NA,3,3,TRUE,FALSE
1,2,learned,117,10,4,8,12,8,12,FALSE,2570.3000000002794,4,7,4,4,FALSE,FALSE
1,2,learned,118,1,9,8,2,8,2,FALSE,3754.7000000001863,2,NA,2,2,TRUE,FALSE
1,2,learned,119,3,9,2,5,2,5,FALSE,3247.100000000093,4,6,4,4,FALSE,FALSE
1,2,learned,120,8,6,1,9,1,1,TRUE,5090.5,4,NA,4,4,TRUE,FALSE
1,2,learned,121,8,4,1,10,1,1,TRUE,10802.5,3,NA,3,3,TRUE,FALSE
1,2,learned,122,2,10,1,4,1,1,TRUE,7086.300000000279,3,NA,3,3,TRUE,FALSE
1,2,learned,123,3,1,2,5,2,5,FALSE,1443.3000000002794,2,4,2,2,FALSE,FALSE
1,2,learned,124,12,1,10,11,10,10,TRUE,1674.7999999998135,3,4,3,3,FALSE,FALSE
1,2,learned,125,2,9,1,4,1,1,TRUE,2338.5,3,NA,3,3,TRUE,FALSE
1,2,learned,126,6,5,4,7,NA,7,TRUE,3594.7000000001863,2,2,2,2,FALSE,TRUE
1,2,learned,127,4,9,2,6,2,2,TRUE,2122.3000000002794,4,8,4,4,FALSE,FALSE
1,2,learned,128,11,1,9,13,9,9,TRUE,2418.600000000093,3,5,3,3,FALSE,FALSE
1,2,learned,129,5,2,4,7,4,7,FALSE,2762.3000000002794,2,4,2,2,FALSE,FALSE
1,2,learned,130,12,8,10,13,10,10,TRUE,3578.5,2,4,2,2,FALSE,FALSE
1,2,learned,131,1,12,8,2,8,2,FALSE,7314.4000000003725,3,NA,3,3,TRUE,FALSE
1,2,learned,132,11,8,9,13,9,9,TRUE,3250.3000000002794,2,4,2,2,FALSE,FALSE
1,2,learned,133,7,2,5,6,NA,5,TRUE,4466.699999999721,3,3,3,3,FALSE,TRUE
1,2,learned,134,9,1,8,11,8,11,FALSE,1634.5,2,5,2,2,FALSE,FALSE
1,2,learned,135,12,1,10,13,10,10,TRUE,2602.7000000001863,3,5,3,3,FALSE,FALSE
1,2,learned,136,10,2,8,12,8,12,FALSE,2554.600000000093,3,6,3,3,FALSE,FALSE
1,2,learned,137,2,11,1,3,1,1,TRUE,1778.5,4,NA,4,4,TRUE,FALSE
1,2,learned,138,2,7,3,1,3,1,FALSE,1850.6000000000931,3,NA,3,3,TRUE,FALSE
1,2,learned,139,8,4,1,9,1,1,TRUE,2362.7000000001863,3,NA,3,3,TRUE,FALSE
1,2,learned,140,2,6,4,3,4,4,TRUE,5730.300000000279,2,3,2,2,FALSE,FALSE
1,2,learned,141,2,11,1,4,1,1,TRUE,8586.600000000093,4,NA,4,4,TRUE,FALSE
1,2,learned,142,12,9,11,10,11,11,TRUE,5434.5,2,3,2,2,FALSE,FALSE
1,2,learned,143,2,8,1,3,1,1,TRUE,8114.600000000093,2,NA,2,2,TRUE,FALSE
1,2,learned,144,8,2,1,9,1,1,TRUE,3050.5,2,NA,2,2,TRUE,FALSE
1,2,learned,145,5,2,3,4,NA,4,TRUE,4906.600000000093,2,2,2,2,FALSE,TRUE
1,2,learned,146,4,9,2,3,2,3,FALSE,6666.300000000279,4,5,4,4,FALSE,FALSE
1,2,learned,147,4,7,3,2,3,2,FALSE,4402.4000000003725,3,4,3,2,FALSE,FALSE
1,2,learned,148,3,7,4,2,4,2,FALSE,6026.4000000003725,3,4,3,2,FALSE,FALSE
1,2,learned,149,13,9,11,12,11,11,TRUE,1274.4000000003723,2,3,2,2,FALSE,FALSE
1,2,learned,150,11,1,12,13,12,13,FALSE,4570.5,4,5,4,3,FALSE,FALSE
1,2,learned,151,4,10,2,3,2,2,TRUE,10666.600000000091,4,5,4,4,FALSE,FALSE
1,2,learned,152,8,11,10,1,10,1,FALSE,6557.899999999907,3,NA,3,2,TRUE,FALSE
1,2,learned,153,6,8,4,7,4,7,FALSE,2274.600000000093,4,6,4,4,FALSE,FALSE
1,2,learned,154,7,3,5,6,5,5,TRUE,2236.5,2,3,2,2,FALSE,FALSE
1,2,learned,155,4,7,5,2,5,5,TRUE,2746.4000000003725,2,4,2,2,FALSE,FALSE
1,2,learned,156,3,6,2,5,NA,5,TRUE,1634.6000000000931,3,3,3,2,FALSE,TRUE
1,2,learned,157,8,3,1,9,1,1,TRUE,1330.7000000001865,3,NA,3,3,TRUE,FALSE
1,2,learned,158,11,10,12,9,12,9,FALSE,2522.600000000093,2,3,2,2,FALSE,FALSE
1,2,learned,159,4,9,5,6,5,5,TRUE,6602.300000000279,6,8,6,4,FALSE,FALSE
1,3,learned,1,4,10,2,3,2,3,FALSE,5492.899999991059,4,5,4,4,FALSE,FALSE
1,3,learned,2,8,2,1,10,1,1,TRUE,3549.5,2,NA,2,2,TRUE,FALSE
1,3,learned,3,8,13,10,1,10,10,TRUE,3181,3,NA,3,3,TRUE,FALSE
1,3,learned,4,2,11,1,3,1,3,FALSE,2445.300000011921,4,NA,4,4,TRUE,FALSE
1,3,learned,5,8,12,10,1,10,10,TRUE,2333,2,NA,2,2,TRUE,FALSE
1,3,learned,6,2,6,4,1,4,4,TRUE,1477.2000000029802,2,NA,2,2,TRUE,FALSE
1,3,learned,7,4,1,5,6,5,5,TRUE,4453.29999999702,4,6,4,2,FALSE,FALSE
1,3,learned,8,1,4,2,8,2,8,FALSE,2036.9000000059605,2,NA,2,2,TRUE,FALSE
1,3,learned,9,9,12,11,8,11,8,FALSE,1885.20000000298,2,3,2,2,FALSE,FALSE
1,3,learned,10,8,4,1,10,1,10,FALSE,1997.29999999702,3,NA,3,3,TRUE,FALSE
1,3,learned,11,8,2,1,9,1,1,TRUE,1578.1000000089407,2,NA,2,2,TRUE,FALSE
1,3,learned,12,4,1,2,5,2,5,FALSE,2357.20000000298,2,4,2,2,FALSE,FALSE
1,3,learned,13,5,8,3,4,NA,4,TRUE,605.2000000029802,4,4,4,4,FALSE,TRUE
1,3,learned,14,3,8,2,5,2,5,FALSE,453.20000000298023,3,5,3,3,FALSE,FALSE
1,3,learned,15,6,2,4,7,4,7,FALSE,2653.20000000298,2,4,2,2,FALSE,FALSE
1,3,learned,16,12,8,10,13,10,13,FALSE,1514.2000000029802,2,4,2,2,FALSE,FALSE
1,3,learned,17,4,10,2,6,2,2,TRUE,1093.3999999910593,4,8,4,4,FALSE,FALSE
1,3,learned,18,10,1,8,12,8,8,TRUE,1325.2999999970198,2,5,2,2,FALSE,FALSE
1,3,learned,19,2,8,1,4,1,4,FALSE,1725.2999999970198,2,NA,2,2,TRUE,FALSE
1,3,learned,20,1,12,8,2,8,2,FALSE,1181.2999999970198,3,NA,3,3,TRUE,FALSE
1,3,learned,21,3,9,2,5,2,5,FALSE,637.2999999970198,4,6,4,4,FALSE,FALSE
1,3,learned,22,4,9,2,6,2,6,FALSE,1485.2000000029802,4,8,4,4,FALSE,FALSE
1,3,learned,23,5,8,3,7,3,3,TRUE,773.0999999940395,4,6,4,4,FALSE,FALSE
1,3,learned,24,3,10,2,5,2,5,FALSE,437.29999999701977,4,6,4,4,FALSE,FALSE
1,3,learned,25,4,9,3,5,3,3,TRUE,821.2000000029802,5,6,5,4,FALSE,FALSE
1,3,learned,26,11,1,9,12,9,12,FALSE,941.2999999970198,3,4,3,3,FALSE,FALSE
1,3,learned,27,10,4,8,12,8,8,TRUE,1061.4000000059605,4,7,4,4,FALSE,FALSE
1,3,learned,28,8,3,1,9,1,9,FALSE,1562.7000000029802,3,NA,3,3,TRUE,FALSE
1,3,learned,29,5,1,4,7,4,7,FALSE,3101.20000000298,3,5,3,3,FALSE,FALSE
1,3,learned,30,2,6,3,1,3,3,TRUE,1005,3,NA,3,2,TRUE,FALSE
1,3,learned,31,4,7,6,3,6,6,TRUE,1093.2000000029802,2,3,2,2,FALSE,FALSE
1,3,learned,32,8,5,1,10,1,10,FALSE,557.2000000029802,4,NA,4,4,TRUE,FALSE
1,3,learned,33,12,1,10,11,10,10,TRUE,1245.2999999970198,3,4,3,3,FALSE,FALSE
1,3,learned,34,4,8,2,3,2,2,TRUE,517.3999999910593,3,4,3,3,FALSE,FALSE
1,3,learned,35,4,8,3,6,3,6,FALSE,565.7000000029802,4,7,4,3,FALSE,FALSE
1,3,learned,36,2,11,1,4,1,1,TRUE,877.1000000089407,4,NA,4,4,TRUE,FALSE
1,3,learned,37,3,7,5,4,5,5,TRUE,637.2000000029802,2,3,2,2,FALSE,FALSE
1,3,learned,38,7,4,5,6,NA,5,TRUE,429.29999999701977,2,2,2,2,FALSE,TRUE
1,3,learned,39,8,12,10,9,10,9,FALSE,397.29999999701977,2,3,2,2,FALSE,FALSE
1,3,learned,40,3,8,4,5,4,4,TRUE,545,4,5,4,3,FALSE,FALSE
1,3,learned,41,1,3,2,8,2,2,TRUE,1053.199999988079,2,NA,2,2,TRUE,FALSE
1,3,learned,42,3,6,4,5,4,4,TRUE,925.2999999970198,2,3,2,2,FALSE,FALSE
1,3,learned,43,12,1,11,13,11,13,FALSE,1025.2999999970198,4,5,4,3,FALSE,FALSE
1,3,learned,44,11,1,12,13,12,13,FALSE,1017.3999999910592,4,5,4,3,FALSE,FALSE
1,3,learned,45,6,3,4,7,4,4,TRUE,760.0999999940395,2,3,2,2,FALSE,FALSE
1,3,learned,46,8,6,1,9,1,1,TRUE,1005.2999999970198,4,NA,4,4,TRUE,FALSE
1,3,learned,47,1,6,2,8,2,8,FALSE,937,3,NA,3,3,TRUE,FALSE
1,3,learned,48,1,9,8,2,8,2,FALSE,823.2000000029802,2,NA,2,2,TRUE,FALSE
1,3,learned,49,4,9,3,6,3,6,FALSE,349.20000000298023,5,8,5,4,FALSE,FALSE
1,3,learned,50,6,1,4,7,4,7,FALSE,453.29999999701977,3,5,3,3,FALSE,FALSE
1,3,learned,51,12,8,10,11,10,10,TRUE,237.20000000298023,2,3,2,2,FALSE,FALSE
1,3,learned,52,4,8,2,6,2,2,TRUE,261.40000000596046,3,7,3,3,FALSE,FALSE
1,3,learned,53,10,3,8,12,8,12,FALSE,437.70000000298023,4,7,4,4,FALSE,FALSE
1,3,learned,54,3,6,2,5,NA,5,TRUE,661.2000000029802,3,3,3,2,FALSE,TRUE
1,3,learned,55,5,6,4,7,NA,7,TRUE,624.1000000089407,2,2,2,2,FALSE,TRUE
1,3,learned,56,4,1,2,6,2,2,TRUE,296.79999999701977,2,6,2,2,FALSE,FALSE
1,3,learned,57,10,2,8,12,8,12,FALSE,1541.2999999970198,3,6,3,3,FALSE,FALSE
1,3,learned,58,4,7,5,6,NA,6,TRUE,1133.2000000029802,2,2,2,2,FALSE,TRUE
1,3,learned,59,3,7,5,2,5,2,FALSE,917.3999999910592,2,4,2,2,FALSE,FALSE
1,3,learned,60,4,8,3,5,3,3,TRUE,1705.2999999970198,4,5,4,3,FALSE,FALSE
1,3,learned,61,8,11,9,1,9,1,FALSE,1269.1000000089407,2,NA,2,2,TRUE,FALSE
1,3,learned,62,4,1,3,5,3,3,TRUE,1112,3,4,3,2,FALSE,FALSE
1,3,learned,63,8,13,9,10,NA,9,TRUE,357.29999999701977,3,3,3,3,FALSE,TRUE
1,3,learned,64,5,1,3,4,NA,4,TRUE,3413.20000000298,3,3,3,3,FALSE,TRUE
1,3,learned,65,4,9,2,3,2,3,FALSE,1605.1000000089407,4,5,4,4,FALSE,FALSE
1,3,learned,66,6,5,4,7,NA,4,TRUE,413.29999999701977,2,2,2,2,FALSE,TRUE
1,3,learned,67,11,10,12,13,12,12,TRUE,621.2999999970198,2,3,2,2,FALSE,FALSE
1,3,learned,68,11,8,9,13,9,9,TRUE,326.90000000596046,2,4,2,2,FALSE,FALSE
1,3,learned,69,3,6,4,2,4,2,FALSE,429.3999999910593,2,3,2,2,FALSE,FALSE
1,3,learned,70,5,8,4,7,4,7,FALSE,745.7999999970198,4,6,4,4,FALSE,FALSE
1,3,learned,71,4,1,2,3,2,2,TRUE,349.20000000298023,2,3,2,2,FALSE,FALSE
1,3,learned,72,5,2,3,4,NA,4,TRUE,1493.0999999940395,2,2,2,2,FALSE,TRUE
1,3,learned,73,5,6,7,3,7,3,FALSE,581.2000000029802,2,3,2,2,FALSE,FALSE
1,3,learned,74,2,5,3,1,3,3,TRUE,669.2000000029802,2,NA,2,2,TRUE,FALSE
1,3,learned,75,7,3,5,6,5,6,FALSE,741.2000000029802,2,3,2,2,FALSE,FALSE
1,3,learned,76,11,1,9,13,9,13,FALSE,645.3999999910593,3,5,3,3,FALSE,FALSE
1,3,learned,77,6,8,4,7,4,7,FALSE,661.4000000059605,4,6,4,4,FALSE,FALSE
1,3,learned,78,13,9,11,12,11,12,FALSE,2005.20000000298,2,3,2,2,FALSE,FALSE
1,3,learned,79,2,7,3,1,3,3,TRUE,837.2999999970198,3,NA,3,3,TRUE,FALSE
1,3,learned,80,2,10,1,4,1,1,TRUE,1989.0999999940395,3,NA,3,3,TRUE,FALSE
1,3,learned,81,4,9,2,5,2,2,TRUE,1901.20000000298,4,6,4,4,FALSE,FALSE
1,3,learned,82,3,1,2,4,2,2,TRUE,637.0999999940395,2,3,2,2,FALSE,FALSE
1,3,learned,83,12,9,11,10,11,10,FALSE,805.2000000029802,2,3,2,2,FALSE,FALSE
1,3,learned,84,9,1,8,11,8,8,TRUE,1949.29999999702,2,5,2,2,FALSE,FALSE
1,3,learned,85,1,10,8,2,8,2,FALSE,1029.2000000029802,2,NA,2,2,TRUE,FALSE
1,3,learned,86,7,1,5,6,NA,5,TRUE,597,4,4,4,4,FALSE,TRUE
1,3,learned,87,1,5,2,8,2,8,FALSE,637.2000000029802,3,NA,3,3,TRUE,FALSE
1,3,learned,88,2,8,1,3,1,1,TRUE,1149.2000000029802,2,NA,2,2,TRUE,FALSE
1,3,learned,89,2,7,4,1,4,1,FALSE,1312.7999999970198,3,NA,3,3,TRUE,FALSE
1,3,learned,90,4,10,3,5,3,5,FALSE,1249.2999999970198,5,6,5,4,FALSE,FALSE
1,3,learned,91,10,9,8,12,8,8,TRUE,272.8999999910593,2,3,2,2,FALSE,FALSE
1,3,learned,92,4,7,5,2,5,5,TRUE,77.1000000089407,2,4,2,2,FALSE,FALSE
1,3,learned,93,4,8,2,5,2,5,FALSE,621.2999999970198,3,5,3,3,FALSE,FALSE
1,3,learned,94,4,7,3,2,3,2,FALSE,245.20000000298023,3,4,3,2,FALSE,FALSE
1,3,learned,95,3,9,4,5,4,4,TRUE,409.20000000298023,5,6,5,4,FALSE,FALSE
1,3,learned,96,1,11,8,2,8,8,TRUE,621.2000000029802,3,NA,3,3,TRUE,FALSE
1,3,learned,97,11,10,9,13,NA,13,TRUE,134.09999999403954,3,3,3,2,FALSE,TRUE
1,3,learned,98,4,10,2,5,2,5,FALSE,937.2999999970198,4,6,4,4,FALSE,FALSE
1,3,learned,99,3,1,4,5,4,4,TRUE,701.2000000029802,3,4,3,2,FALSE,FALSE
1,3,learned,100,13,1,11,12,NA,12,TRUE,717.2000000029802,4,4,4,4,FALSE,TRUE
1,3,learned,101,2,5,3,4,NA,3,TRUE,1473.2999999970198,2,2,2,2,FALSE,TRUE
1,3,learned,102,4,7,6,2,6,2,FALSE,855.3999999910593,2,4,2,2,FALSE,FALSE
1,3,learned,103,8,11,9,10,9,10,FALSE,1109.2999999970198,2,3,2,2,FALSE,FALSE
1,3,learned,104,2,7,3,4,NA,4,TRUE,542.8999999910593,3,3,3,3,FALSE,TRUE
1,3,learned,105,11,2,9,12,9,9,TRUE,1045.4000000059605,4,5,4,4,FALSE,FALSE
1,3,learned,106,3,7,4,2,4,4,TRUE,1261.2000000029802,3,4,3,2,FALSE,FALSE
1,3,learned,107,2,12,1,3,1,3,FALSE,213.29999999701977,4,NA,4,4,TRUE,FALSE
1,3,learned,108,3,1,2,5,2,5,FALSE,585.0999999940395,2,4,2,2,FALSE,FALSE
1,3,learned,109,5,2,4,7,4,4,TRUE,1869.5,2,4,2,2,FALSE,FALSE
1,3,learned,110,11,10,12,9,12,12,TRUE,3757.20000000298,2,3,2,2,FALSE,FALSE
1,3,learned,111,11,8,9,12,9,12,FALSE,469,2,3,2,2,FALSE,FALSE
1,3,learned,112,12,8,11,13,11,11,TRUE,677.2000000029802,3,4,3,2,FALSE,FALSE
1,3,learned,113,8,12,9,1,9,9,TRUE,791.2000000029802,3,NA,3,2,TRUE,FALSE
1,3,learned,114,8,13,9,1,9,9,TRUE,862.5,3,NA,3,3,TRUE,FALSE
1,3,learned,115,10,11,12,8,12,8,FALSE,253.20000000298023,2,3,2,2,FALSE,FALSE
1,3,learned,116,12,2,11,13,11,13,FALSE,445.20000000298023,5,6,5,4,FALSE,FALSE
1,3,learned,117,2,9,1,3,1,1,TRUE,661.2999999970198,3,NA,3,3,TRUE,FALSE
1,3,learned,118,13,8,11,12,NA,11,TRUE,733.2000000029802,3,3,3,3,FALSE,TRUE
1,3,learned,119,4,10,3,6,3,3,TRUE,253.4000000059605,5,8,5,4,FALSE,FALSE
1,3,learned,120,3,10,2,4,2,2,TRUE,453.20000000298023,4,5,4,4,FALSE,FALSE
1,3,learned,121,12,9,10,13,NA,10,TRUE,389.5,3,3,3,2,FALSE,TRUE
1,3,learned,122,9,3,8,11,8,8,TRUE,549.2000000029802,4,7,4,4,FALSE,FALSE
1,3,learned,123,5,1,3,7,3,3,TRUE,397.20000000298023,3,5,3,3,FALSE,FALSE
1,3,learned,124,8,3,1,10,1,1,TRUE,321.20000000298023,3,NA,3,3,TRUE,FALSE
1,3,learned,125,4,10,5,6,5,6,FALSE,389.3999999910593,6,8,6,4,FALSE,FALSE
1,3,learned,126,12,1,10,13,10,13,FALSE,343.59999999403954,3,5,3,3,FALSE,FALSE
1,3,learned,127,8,11,10,1,10,1,FALSE,197.29999999701977,3,NA,3,2,TRUE,FALSE
1,3,learned,128,12,2,10,11,10,11,FALSE,677.2000000029802,4,5,4,4,FALSE,FALSE
1,3,learned,129,8,4,1,9,1,9,FALSE,981.2000000029802,3,NA,3,3,TRUE,FALSE
1,3,learned,130,3,9,2,4,2,2,TRUE,773.2999999970198,4,5,4,4,FALSE,FALSE
1,3,learned,131,1,13,8,2,8,8,TRUE,2386.29999999702,4,NA,4,4,TRUE,FALSE
1,3,learned,132,11,2,12,13,12,13,FALSE,1437.2999999970198,5,6,5,4,FALSE,FALSE
1,3,learned,133,8,6,1,10,1,1,TRUE,885.2000000029802,4,NA,4,4,TRUE,FALSE
1,3,learned,134,2,10,1,3,1,1,TRUE,1181.2000000029802,3,NA,3,3,TRUE,FALSE
1,3,learned,135,1,7,2,8,2,8,FALSE,613.1000000089407,4,NA,4,4,TRUE,FALSE
1,3,learned,136,9,4,8,11,8,8,TRUE,893.4000000059605,4,7,4,4,FALSE,FALSE
1,3,learned,137,11,2,9,13,9,13,FALSE,1889.1000000089407,4,6,4,4,FALSE,FALSE
1,3,learned,138,7,2,5,6,NA,5,TRUE,853.2000000029802,3,3,3,3,FALSE,TRUE
1,3,learned,139,2,5,4,1,4,1,FALSE,661.2000000029802,2,NA,2,2,TRUE,FALSE
1,3,learned,140,2,6,4,3,4,4,TRUE,197.4000000059605,2,3,2,2,FALSE,FALSE
1,3,learned,141,8,5,1,9,1,9,FALSE,549.1000000089407,4,NA,4,4,TRUE,FALSE
1,3,learned,142,5,6,4,3,4,4,TRUE,373.29999999701977,2,3,2,2,FALSE,FALSE
1,3,learned,143,4,9,5,6,5,5,TRUE,317.1000000089407,6,8,6,4,FALSE,FALSE
1,3,learned,144,3,10,4,5,4,4,TRUE,1197.2000000029802,5,6,5,4,FALSE,FALSE
1,3,learned,145,9,13,11,8,11,11,TRUE,452.90000000596046,2,4,2,2,FALSE,FALSE
1,3,learned,146,11,8,12,13,12,13,FALSE,1021.2000000029802,3,4,3,2,FALSE,FALSE
1,3,learned,147,12,9,11,13,11,11,TRUE,1448.0999999940395,2,3,2,2,FALSE,FALSE
1,3,learned,148,4,1,3,6,3,3,TRUE,1405.2000000029802,3,6,3,2,FALSE,FALSE
1,3,learned,149,3,8,2,4,2,2,TRUE,1262.300000011921,3,4,3,3,FALSE,FALSE
1,3,learned,150,9,10,8,11,8,8,TRUE,676.9000000059605,2,3,2,2,FALSE,FALSE
1,3,learned,151,2,9,1,4,1,4,FALSE,421,3,NA,3,3,TRUE,FALSE
1,3,learned,152,13,10,12,11,12,11,FALSE,606.6000000089407,2,3,2,2,FALSE,FALSE
1,3,learned,153,12,2,10,13,10,10,TRUE,1582.6000000089407,4,6,4,4,FALSE,FALSE
1,3,learned,154,4,7,5,3,5,3,FALSE,425.20000000298023,2,3,2,2,FALSE,FALSE
1,3,learned,155,2,12,1,4,1,4,FALSE,621.2999999970198,4,NA,4,4,TRUE,FALSE
1,3,learned,156,9,2,8,11,8,11,FALSE,645.4000000059605,3,6,3,3,FALSE,FALSE
1,3,learned,157,4,8,5,6,5,6,FALSE,1217.3999999910593,5,7,5,3,FALSE,FALSE
1,3,learned,158,5,2,3,7,3,7,FALSE,797.2999999970198,2,4,2,2,FALSE,FALSE
1,3,learned,159,10,13,12,8,12,12,TRUE,1239.5,2,4,2,2,FALSE,FALSE
1,4,learned,1,1,3,2,8,2,2,TRUE,12796.80000001192,2,NA,2,2,TRUE,FALSE
1,4,learned,2,4,10,2,5,2,5,FALSE,22282,4,6,4,4,FALSE,FALSE
1,4,learned,3,2,7,3,4,NA,4,TRUE,16026.40000000596,3,3,3,3,FALSE,TRUE
1,4,learned,4,8,12,10,1,10,1,FALSE,11772.20000000298,2,NA,2,2,TRUE,FALSE
1,4,learned,5,11,1,12,13,12,12,TRUE,14249.19999998808,4,5,4,3,FALSE,FALSE
1,4,learned,6,11,8,9,12,9,9,TRUE,12404.79999999702,2,3,2,2,FALSE,FALSE
1,4,learned,7,12,2,10,13,10,10,TRUE,24921,4,6,4,4,FALSE,FALSE
1,4,learned,8,4,9,5,6,5,5,TRUE,14381,6,8,6,4,FALSE,FALSE
1,4,learned,9,9,3,8,11,8,11,FALSE,4562.600000008941,4,7,4,4,FALSE,FALSE
1,4,learned,10,12,9,11,13,11,11,TRUE,9451.29999999702,2,3,2,2,FALSE,FALSE
1,4,learned,11,3,6,4,2,4,4,TRUE,6419.5999999940395,2,3,2,2,FALSE,FALSE
1,4,learned,12,5,8,4,7,4,4,TRUE,7430,4,6,4,4,FALSE,FALSE
1,4,learned,13,9,13,11,8,11,11,TRUE,4877.5,2,4,2,2,FALSE,FALSE
1,4,learned,14,8,13,10,1,10,10,TRUE,17032.09999999404,3,NA,3,3,TRUE,FALSE
1,4,learned,15,12,9,10,13,NA,13,TRUE,15298.90000000596,3,3,3,2,FALSE,TRUE
1,4,learned,16,4,1,3,5,3,3,TRUE,18250.39999999106,3,4,3,2,FALSE,FALSE
1,4,learned,17,4,7,5,3,5,5,TRUE,4528.4000000059605,2,3,2,2,FALSE,FALSE
1,4,learned,18,8,2,1,9,1,1,TRUE,9604.80000001192,2,NA,2,2,TRUE,FALSE
1,4,learned,19,5,2,3,4,NA,3,TRUE,11648.29999999702,2,2,2,2,FALSE,TRUE
1,4,learned,20,11,10,12,13,12,12,TRUE,9941.5,2,3,2,2,FALSE,FALSE
1,4,learned,21,10,11,12,8,12,12,TRUE,3737.70000000298,2,3,2,2,FALSE,FALSE
1,4,learned,22,7,3,5,6,5,5,TRUE,5556.5999999940395,2,3,2,2,FALSE,FALSE
1,4,learned,23,1,9,8,2,8,8,TRUE,11188.5,2,NA,2,2,TRUE,FALSE
1,4,learned,24,1,5,2,8,2,2,TRUE,4787.100000008941,3,NA,3,3,TRUE,FALSE
1,4,learned,25,8,4,1,10,1,1,TRUE,19675.5,3,NA,3,3,TRUE,FALSE
1,4,learned,26,8,3,1,10,1,1,TRUE,11312.20000000298,3,NA,3,3,TRUE,FALSE
1,4,learned,27,3,8,4,5,4,4,TRUE,5916.5999999940395,4,5,4,3,FALSE,FALSE
1,4,learned,28,13,1,11,12,NA,11,TRUE,15295.70000000298,4,4,4,4,FALSE,TRUE
1,4,learned,29,4,1,3,6,3,3,TRUE,10623.70000000298,3,6,3,2,FALSE,FALSE
1,4,learned,30,9,1,8,11,8,8,TRUE,8569.10000000894,2,5,2,2,FALSE,FALSE
1,4,learned,31,3,10,2,5,2,2,TRUE,13325.5,4,6,4,4,FALSE,FALSE
1,4,learned,32,5,6,7,3,7,7,TRUE,4605.5,2,3,2,2,FALSE,FALSE
1,4,learned,33,6,8,4,7,4,4,TRUE,5278,4,6,4,4,FALSE,FALSE
1,4,learned,34,4,8,2,5,2,2,TRUE,7641.09999999404,3,5,3,3,FALSE,FALSE
1,4,learned,35,5,6,4,3,4,4,TRUE,3502.79999999702,2,3,2,2,FALSE,FALSE
1,4,learned,36,12,9,11,10,11,11,TRUE,3633.70000000298,2,3,2,2,FALSE,FALSE
1,4,learned,37,5,1,3,4,NA,4,TRUE,5092.800000011921,3,3,3,3,FALSE,TRUE
1,4,learned,38,12,1,11,13,11,11,TRUE,12006.79999999702,4,5,4,3,FALSE,FALSE
1,4,learned,39,11,10,12,9,12,12,TRUE,6697.70000000298,2,3,2,2,FALSE,FALSE
1,4,learned,40,4,10,2,3,2,2,TRUE,28790.19999998808,4,5,4,4,FALSE,FALSE
1,4,learned,41,3,10,2,4,2,2,TRUE,8707.09999999404,4,5,4,4,FALSE,FALSE
1,4,learned,42,8,11,9,10,9,10,FALSE,23376.10000000894,2,3,2,2,FALSE,FALSE
1,4,learned,43,8,5,1,10,1,1,TRUE,15600.5,4,NA,4,4,TRUE,FALSE
1,4,learned,44,3,6,2,5,NA,5,TRUE,17648.5,3,3,3,2,FALSE,TRUE
1,4,learned,45,11,1,9,13,9,9,TRUE,8636.300000011921,3,5,3,3,FALSE,FALSE
1,4,learned,46,6,1,4,7,4,4,TRUE,10092.70000000298,3,5,3,3,FALSE,FALSE
1,4,learned,47,4,1,5,6,5,5,TRUE,10120.40000000596,4,6,4,2,FALSE,FALSE
1,4,learned,48,13,8,11,12,NA,12,TRUE,5866.5,3,3,3,3,FALSE,TRUE
1,4,learned,49,2,11,1,4,1,1,TRUE,10867,4,NA,4,4,TRUE,FALSE
1,4,learned,50,8,5,1,9,1,1,TRUE,16775.5,4,NA,4,4,TRUE,FALSE
1,4,learned,51,2,6,4,1,4,4,TRUE,7247.90000000596,2,NA,2,2,TRUE,FALSE
1,4,learned,52,13,10,12,11,12,12,TRUE,4420.29999999702,2,3,2,2,FALSE,FALSE
1,4,learned,53,3,10,4,5,4,4,TRUE,9821.80000001192,5,6,5,4,FALSE,FALSE
1,4,learned,54,2,7,4,1,4,4,TRUE,7467.29999999702,3,NA,3,3,TRUE,FALSE
1,4,learned,55,8,6,1,10,1,1,TRUE,16334.60000000894,4,NA,4,4,TRUE,FALSE
1,4,learned,56,4,7,5,6,NA,5,TRUE,21359,2,2,2,2,FALSE,TRUE
1,4,learned,57,13,9,11,12,11,11,TRUE,3427.29999999702,2,3,2,2,FALSE,FALSE
1,4,learned,58,2,8,1,3,1,1,TRUE,7554.29999999702,2,NA,2,2,TRUE,FALSE
1,4,learned,59,3,6,4,5,4,4,TRUE,11607.09999999404,2,3,2,2,FALSE,FALSE
1,4,learned,60,8,3,1,9,1,1,TRUE,15106,3,NA,3,3,TRUE,FALSE
1,4,learned,61,11,8,9,13,9,9,TRUE,12451.5,2,4,2,2,FALSE,FALSE
1,4,learned,62,4,9,3,5,3,3,TRUE,26478,5,6,5,4,FALSE,FALSE
1,4,learned,63,9,12,11,8,11,8,FALSE,27152.5,2,3,2,2,FALSE,FALSE
1,4,learned,64,12,1,10,11,10,11,FALSE,15692,3,4,3,3,FALSE,FALSE
1,4,learned,65,12,8,10,11,10,11,FALSE,12370.10000000894,2,3,2,2,FALSE,FALSE
1,4,learned,66,10,3,8,12,8,12,FALSE,8706.699999988079,4,7,4,4,FALSE,FALSE
1,4,learned,67,11,1,9,12,9,9,TRUE,8920.20000000298,3,4,3,3,FALSE,FALSE
1,4,learned,68,10,13,12,8,12,12,TRUE,3949.6000000089407,2,4,2,2,FALSE,FALSE
1,4,learned,69,2,5,3,4,NA,4,TRUE,10479.39999999106,2,2,2,2,FALSE,TRUE
1,4,learned,70,4,8,3,6,3,3,TRUE,9480.5,4,7,4,3,FALSE,FALSE
1,4,learned,71,6,5,4,7,NA,7,TRUE,4463.29999999702,2,2,2,2,FALSE,TRUE
1,4,learned,72,11,8,12,13,12,12,TRUE,17991.90000000596,3,4,3,2,FALSE,FALSE
1,4,learned,73,2,5,4,1,4,4,TRUE,3470.29999999702,2,NA,2,2,TRUE,FALSE
1,4,learned,74,4,8,2,6,2,2,TRUE,7528.70000000298,3,7,3,3,FALSE,FALSE
1,4,learned,75,1,7,2,8,2,8,FALSE,7404,4,NA,4,4,TRUE,FALSE
1,4,learned,76,1,6,2,8,2,2,TRUE,14027.89999999106,3,NA,3,3,TRUE,FALSE
1,4,learned,77,4,7,6,3,6,6,TRUE,3157.5999999940395,2,3,2,2,FALSE,FALSE
1,4,learned,78,5,2,3,7,3,3,TRUE,3284.9000000059605,2,4,2,2,FALSE,FALSE
1,4,learned,79,12,2,11,13,11,13,FALSE,16056.89999999106,5,6,5,4,FALSE,FALSE
1,4,learned,80,3,9,2,5,2,2,TRUE,4421.5,4,6,4,4,FALSE,FALSE
1,4,learned,81,2,9,1,4,1,1,TRUE,7321.59999999404,3,NA,3,3,TRUE,FALSE
1,4,learned,82,10,4,8,12,8,12,FALSE,22599.20000000298,4,7,4,4,FALSE,FALSE
1,4,learned,83,3,7,5,2,5,5,TRUE,4465.29999999702,2,4,2,2,FALSE,FALSE
1,4,learned,84,11,2,9,12,9,9,TRUE,16468.29999999702,4,5,4,4,FALSE,FALSE
1,4,learned,85,4,9,2,6,2,2,TRUE,6033,4,8,4,4,FALSE,FALSE
1,4,learned,86,4,9,2,3,2,2,TRUE,11172.89999999106,4,5,4,4,FALSE,FALSE
1,4,learned,87,12,8,11,13,11,11,TRUE,16423.5,3,4,3,2,FALSE,FALSE
1,4,learned,88,10,1,8,12,8,8,TRUE,15153.79999999702,2,5,2,2,FALSE,FALSE
1,4,learned,89,5,8,3,4,NA,4,TRUE,3609.29999999702,4,4,4,4,FALSE,TRUE
1,4,learned,90,5,8,3,7,3,3,TRUE,4012.5,4,6,4,4,FALSE,FALSE
1,4,learned,91,4,8,3,5,3,3,TRUE,7586,4,5,4,3,FALSE,FALSE
1,4,learned,92,8,4,1,9,1,1,TRUE,12425.5,3,NA,3,3,TRUE,FALSE
1,4,learned,93,11,2,12,13,12,12,TRUE,9833.20000000298,5,6,5,4,FALSE,FALSE
1,4,learned,94,9,4,8,11,8,8,TRUE,9144.10000000894,4,7,4,4,FALSE,FALSE
1,4,learned,95,5,6,4,7,NA,7,TRUE,14455.79999999702,2,2,2,2,FALSE,TRUE
1,4,learned,96,4,8,5,6,5,5,TRUE,7849.40000000596,5,7,5,3,FALSE,FALSE
1,4,learned,97,2,10,1,4,1,1,TRUE,9484.5,3,NA,3,3,TRUE,FALSE
1,4,learned,98,8,11,9,1,9,1,FALSE,6636.699999988079,2,NA,2,2,TRUE,FALSE
1,4,learned,99,8,13,9,1,9,9,TRUE,7950,3,NA,3,3,TRUE,FALSE
1,4,learned,100,4,10,3,5,3,3,TRUE,7296.20000000298,5,6,5,4,FALSE,FALSE
1,4,learned,101,2,6,3,1,3,3,TRUE,4085.29999999702,3,NA,3,2,TRUE,FALSE
1,4,learned,102,4,10,2,6,2,2,TRUE,5771.79999999702,4,8,4,4,FALSE,FALSE
1,4,learned,103,8,2,1,10,1,1,TRUE,5577.9000000059605,2,NA,2,2,TRUE,FALSE
1,4,learned,104,3,7,4,2,4,4,TRUE,7562.5,3,4,3,2,FALSE,FALSE
1,4,learned,105,9,2,8,11,8,8,TRUE,10129.69999998808,3,6,3,3,FALSE,FALSE
1,4,learned,106,4,10,5,6,5,5,TRUE,15787.70000000298,6,8,6,4,FALSE,FALSE
1,4,learned,107,4,7,6,2,6,6,TRUE,2646,2,4,2,2,FALSE,FALSE
1,4,learned,108,3,8,2,4,2,2,TRUE,7087.0999999940395,3,4,3,3,FALSE,FALSE
1,4,learned,109,8,11,10,1,10,10,TRUE,14984,3,NA,3,2,TRUE,FALSE
1,4,learned,110,4,9,2,5,2,2,TRUE,7515.699999988079,4,6,4,4,FALSE,FALSE
1,4,learned,111,1,4,2,8,2,2,TRUE,4430.399999976158,2,NA,2,2,TRUE,FALSE
1,4,learned,112,9,10,8,11,8,8,TRUE,9659.5,2,3,2,2,FALSE,FALSE
1,4,learned,113,2,12,1,4,1,1,TRUE,16246.59999999404,4,NA,4,4,TRUE,FALSE
1,4,learned,114,2,6,4,3,4,4,TRUE,3275.9000000059605,2,3,2,2,FALSE,FALSE
1,4,learned,115,5,1,4,7,4,4,TRUE,5639,3,5,3,3,FALSE,FALSE
1,4,learned,116,12,1,10,13,10,10,TRUE,16611.80000001192,3,5,3,3,FALSE,FALSE
1,4,learned,117,7,4,5,6,NA,6,TRUE,6824.300000011921,2,2,2,2,FALSE,TRUE
1,4,learned,118,6,2,4,7,4,4,TRUE,4298.5999999940395,2,4,2,2,FALSE,FALSE
1,4,learned,119,1,11,8,2,8,8,TRUE,13026.09999999404,3,NA,3,3,TRUE,FALSE
1,4,learned,120,11,10,9,13,NA,13,TRUE,6832.299999982119,3,3,3,2,FALSE,TRUE
1,4,learned,121,4,10,3,6,3,3,TRUE,17732.40000000596,5,8,5,4,FALSE,FALSE
1,4,learned,122,11,2,9,13,9,13,FALSE,11813.20000001788,4,6,4,4,FALSE,FALSE
1,4,learned,123,3,1,2,5,2,2,TRUE,9746.30000001192,2,4,2,2,FALSE,FALSE
1,4,learned,124,3,9,4,5,4,5,FALSE,5893.699999988079,5,6,5,4,FALSE,FALSE
1,4,learned,125,4,1,2,6,2,2,TRUE,2257.2999999821186,2,6,2,2,FALSE,FALSE
1,4,learned,126,10,2,8,12,8,8,TRUE,8959,3,6,3,3,FALSE,FALSE
1,4,learned,127,5,1,3,7,3,3,TRUE,2871.7999999821186,3,5,3,3,FALSE,FALSE
1,4,learned,128,2,10,1,3,1,1,TRUE,14412.59999999404,3,NA,3,3,TRUE,FALSE
1,4,learned,129,3,1,4,5,4,4,TRUE,7482.699999988079,3,4,3,2,FALSE,FALSE
1,4,learned,130,3,1,2,4,2,2,TRUE,6341.799999982119,2,3,2,2,FALSE,FALSE
1,4,learned,131,10,9,8,12,8,8,TRUE,19385,2,3,2,2,FALSE,FALSE
1,4,learned,132,2,12,1,3,1,1,TRUE,15363.70000001788,4,NA,4,4,TRUE,FALSE
1,4,learned,133,4,7,3,2,3,3,TRUE,7116.200000017881,3,4,3,2,FALSE,FALSE
1,4,learned,134,8,12,10,9,10,10,TRUE,18287.29999998212,2,3,2,2,FALSE,FALSE
1,4,learned,135,8,13,9,10,NA,10,TRUE,11940.79999998212,3,3,3,3,FALSE,TRUE
1,4,learned,136,5,2,4,7,4,4,TRUE,3359.9000000059605,2,4,2,2,FALSE,FALSE
1,4,learned,137,4,9,3,6,3,3,TRUE,3299,5,8,5,4,FALSE,FALSE
1,4,learned,138,12,8,10,13,10,10,TRUE,13558.59999999404,2,4,2,2,FALSE,FALSE
1,4,learned,139,1,12,8,2,8,8,TRUE,8014.699999988079,3,NA,3,3,TRUE,FALSE
1,4,learned,140,4,7,5,2,5,5,TRUE,2822.199999988079,2,4,2,2,FALSE,FALSE
1,4,learned,141,8,12,9,1,9,1,FALSE,23249.79999998212,3,NA,3,2,TRUE,FALSE
1,4,learned,142,7,2,5,6,NA,5,TRUE,2437.300000011921,3,3,3,3,FALSE,TRUE
1,4,learned,143,2,5,3,1,3,3,TRUE,2526.300000011921,2,NA,2,2,TRUE,FALSE
1,4,learned,144,1,10,8,2,8,8,TRUE,22650.30000001192,2,NA,2,2,TRUE,FALSE
1,4,learned,145,4,1,2,5,2,2,TRUE,8597.59999999404,2,4,2,2,FALSE,FALSE
1,4,learned,146,6,3,4,7,4,4,TRUE,4076,2,3,2,2,FALSE,FALSE
1,4,learned,147,4,1,2,3,2,2,TRUE,2687.399999976158,2,3,2,2,FALSE,FALSE
1,4,learned,148,1,13,8,2,8,8,TRUE,24081.40000000596,4,NA,4,4,TRUE,FALSE
1,4,learned,149,3,9,2,4,2,2,TRUE,6628.4000000059605,4,5,4,4,FALSE,FALSE
1,4,learned,150,2,9,1,3,1,1,TRUE,10033.09999999404,3,NA,3,3,TRUE,FALSE
1,4,learned,151,8,6,1,9,1,1,TRUE,20061.90000000596,4,NA,4,4,TRUE,FALSE
1,4,learned,152,2,11,1,3,1,1,TRUE,14779,4,NA,4,4,TRUE,FALSE
1,4,learned,153,4,8,2,3,2,2,TRUE,17454.69999998808,3,4,3,3,FALSE,FALSE
1,4,learned,154,3,8,2,5,2,2,TRUE,3028.9000000059605,3,5,3,3,FALSE,FALSE
1,4,learned,155,7,1,5,6,NA,5,TRUE,4659.699999988079,4,4,4,4,FALSE,TRUE
1,4,learned,156,2,8,1,4,1,1,TRUE,12247.80000001192,2,NA,2,2,TRUE,FALSE
1,4,learned,157,2,7,3,1,3,3,TRUE,7179.4000000059605,3,NA,3,3,TRUE,FALSE
1,4,learned,158,12,2,10,11,10,11,FALSE,20527.79999998212,4,5,4,4,FALSE,FALSE
1,4,learned,159,3,7,5,4,5,5,TRUE,4165.9000000059605,2,3,2,2,FALSE,FALSE
1,5,learned,1,9,13,11,8,11,11,TRUE,7869.799999982119,2,4,2,2,FALSE,FALSE
1,5,learned,2,2,6,4,3,4,4,TRUE,5357.4000000059605,2,3,2,2,FALSE,FALSE
1,5,learned,3,4,7,5,6,NA,6,TRUE,5573,2,2,2,2,FALSE,TRUE
1,5,learned,4,8,5,1,9,1,9,FALSE,14713.399999976158,4,NA,4,4,TRUE,FALSE
1,5,learned,5,5,6,4,3,4,3,FALSE,2665.199999988079,2,3,2,2,FALSE,FALSE
1,5,learned,6,11,10,9,13,NA,13,TRUE,2373.300000011921,3,3,3,2,FALSE,TRUE
1,5,learned,7,12,8,10,13,10,10,TRUE,4349.100000023842,2,4,2,2,FALSE,FALSE
1,5,learned,8,10,9,8,12,8,8,TRUE,7377.200000017881,2,3,2,2,FALSE,FALSE
1,5,learned,9,12,1,10,13,10,10,TRUE,3113.0999999940395,3,5,3,3,FALSE,FALSE
1,5,learned,10,5,1,4,7,4,4,TRUE,3173.4000000059605,3,5,3,3,FALSE,FALSE
1,5,learned,11,8,6,1,10,1,1,TRUE,2661.100000023842,4,NA,4,4,TRUE,FALSE
1,5,learned,12,4,8,2,5,2,2,TRUE,5365.5,3,5,3,3,FALSE,FALSE
1,5,learned,13,4,7,6,2,6,6,TRUE,3285,2,4,2,2,FALSE,FALSE
1,5,learned,14,3,6,2,5,NA,2,TRUE,3165.300000011921,3,3,3,2,FALSE,TRUE
1,5,learned,15,5,6,4,7,NA,4,TRUE,3502,2,2,2,2,FALSE,TRUE
1,5,learned,16,10,11,12,8,12,12,TRUE,2428.899999976158,2,3,2,2,FALSE,FALSE
1,5,learned,17,3,10,2,4,2,4,FALSE,3949.400000005961,4,5,4,4,FALSE,FALSE
1,5,learned,18,1,4,2,8,2,2,TRUE,7501.399999976158,2,NA,2,2,TRUE,FALSE
1,5,learned,19,5,2,4,7,4,4,TRUE,2749.2000000178814,2,4,2,2,FALSE,FALSE
1,5,learned,20,2,12,1,3,1,1,TRUE,12837.5,4,NA,4,4,TRUE,FALSE
1,5,learned,21,12,2,10,11,10,10,TRUE,3132.7999999821186,4,5,4,4,FALSE,FALSE
1,5,learned,22,13,1,11,12,NA,12,TRUE,5413.4000000059605,4,4,4,4,FALSE,TRUE
1,5,learned,23,4,1,3,5,3,3,TRUE,2797,3,4,3,2,FALSE,FALSE
1,5,learned,24,5,8,3,4,NA,3,TRUE,3037.100000023842,4,4,4,4,FALSE,TRUE
1,5,learned,25,5,1,3,4,NA,3,TRUE,2909,3,3,3,3,FALSE,TRUE
1,5,learned,26,12,9,10,13,NA,10,TRUE,3477.199999988079,3,3,3,2,FALSE,TRUE
1,5,learned,27,8,12,10,1,10,10,TRUE,7245.300000011921,2,NA,2,2,TRUE,FALSE
1,5,learned,28,4,8,3,5,3,5,FALSE,2740.9000000059605,4,5,4,3,FALSE,FALSE
1,5,learned,29,7,1,5,6,NA,6,TRUE,6541.300000011921,4,4,4,4,FALSE,TRUE
1,5,learned,30,6,1,4,7,4,4,TRUE,6293.0999999940395,3,5,3,3,FALSE,FALSE
1,5,learned,31,2,12,1,4,1,1,TRUE,4623.300000011921,4,NA,4,4,TRUE,FALSE
1,5,learned,32,3,9,4,5,4,5,FALSE,5085.200000017881,5,6,5,4,FALSE,FALSE
1,5,learned,33,10,4,8,12,8,8,TRUE,3333,4,7,4,4,FALSE,FALSE
1,5,learned,34,3,1,2,5,2,5,FALSE,1669.100000023842,2,4,2,2,FALSE,FALSE
1,5,learned,35,4,10,5,6,5,6,FALSE,3221.4000000059605,6,8,6,4,FALSE,FALSE
1,5,learned,36,11,2,12,13,12,12,TRUE,9917.30000001192,5,6,5,4,FALSE,FALSE
1,5,learned,37,4,8,5,6,5,6,FALSE,2924.9000000059605,5,7,5,3,FALSE,FALSE
1,5,learned,38,1,11,8,2,8,8,TRUE,3541.2999999821186,3,NA,3,3,TRUE,FALSE
1,5,learned,39,11,2,9,13,9,9,TRUE,1845.100000023842,4,6,4,4,FALSE,FALSE
1,5,learned,40,8,3,1,9,1,9,FALSE,2885.0999999940395,3,NA,3,3,TRUE,FALSE
1,5,learned,41,4,10,2,6,2,6,FALSE,3053.0999999940395,4,8,4,4,FALSE,FALSE
1,5,learned,42,4,9,5,6,5,5,TRUE,10957.30000001192,6,8,6,4,FALSE,FALSE
1,5,learned,43,12,8,10,11,10,10,TRUE,2065.300000011921,2,3,2,2,FALSE,FALSE
1,5,learned,44,1,12,8,2,8,8,TRUE,2317.300000011921,3,NA,3,3,TRUE,FALSE
1,5,learned,45,9,4,8,11,8,8,TRUE,6621.5,4,7,4,4,FALSE,FALSE
1,5,learned,46,3,6,4,2,4,2,FALSE,2621.0999999940395,2,3,2,2,FALSE,FALSE
1,5,learned,47,7,2,5,6,NA,6,TRUE,1781.300000011921,3,3,3,3,FALSE,TRUE
1,5,learned,48,4,9,3,6,3,3,TRUE,6269.5,5,8,5,4,FALSE,FALSE
1,5,learned,49,1,3,2,8,2,2,TRUE,3557.0999999940395,2,NA,2,2,TRUE,FALSE
1,5,learned,50,8,4,1,10,1,1,TRUE,4797.0999999940395,3,NA,3,3,TRUE,FALSE
1,5,learned,51,4,1,2,5,2,2,TRUE,2093,2,4,2,2,FALSE,FALSE
1,5,learned,52,2,6,4,1,4,4,TRUE,4630.200000017881,2,NA,2,2,TRUE,FALSE
1,5,learned,53,4,9,2,5,2,2,TRUE,11517.19999998808,4,6,4,4,FALSE,FALSE
1,5,learned,54,8,3,1,10,1,1,TRUE,3420.899999976158,3,NA,3,3,TRUE,FALSE
1,5,learned,55,3,8,2,5,2,5,FALSE,2333.199999988079,3,5,3,3,FALSE,FALSE
1,5,learned,56,3,10,4,5,4,5,FALSE,3909,5,6,5,4,FALSE,FALSE
1,5,learned,57,1,7,2,8,2,8,FALSE,8045.299999982119,4,NA,4,4,TRUE,FALSE
1,5,learned,58,10,1,8,12,8,8,TRUE,4517.0999999940395,2,5,2,2,FALSE,FALSE
1,5,learned,59,11,8,12,13,12,12,TRUE,5909.0999999940395,3,4,3,2,FALSE,FALSE
1,5,learned,60,8,13,10,1,10,10,TRUE,5693,3,NA,3,3,TRUE,FALSE
1,5,learned,61,2,5,3,1,3,3,TRUE,2733.100000023842,2,NA,2,2,TRUE,FALSE
1,5,learned,62,11,1,12,13,12,12,TRUE,2709.300000011921,4,5,4,3,FALSE,FALSE
1,5,learned,63,12,1,11,13,11,11,TRUE,4389.300000011921,4,5,4,3,FALSE,FALSE
1,5,learned,64,8,6,1,9,1,9,FALSE,3844.899999976158,4,NA,4,4,TRUE,FALSE
1,5,learned,65,3,10,2,5,2,5,FALSE,2837.100000023842,4,6,4,4,FALSE,FALSE
1,5,learned,66,4,1,3,6,3,3,TRUE,3365,3,6,3,2,FALSE,FALSE
1,5,learned,67,8,11,9,1,9,9,TRUE,13069.09999999404,2,NA,2,2,TRUE,FALSE
1,5,learned,68,8,11,10,1,10,1,FALSE,2677,3,NA,3,2,TRUE,FALSE
1,5,learned,69,1,6,2,8,2,2,TRUE,1181.300000011921,3,NA,3,3,TRUE,FALSE
1,5,learned,70,4,8,2,6,2,6,FALSE,3693.400000005961,3,7,3,3,FALSE,FALSE
1,5,learned,71,3,7,5,4,5,5,TRUE,5484.799999982119,2,3,2,2,FALSE,FALSE
1,5,learned,72,4,10,3,5,3,3,TRUE,7277.09999999404,5,6,5,4,FALSE,FALSE
1,5,learned,73,3,8,4,5,4,5,FALSE,7501,4,5,4,3,FALSE,FALSE
1,5,learned,74,10,13,12,8,12,12,TRUE,2749.199999988079,2,4,2,2,FALSE,FALSE
1,5,learned,75,12,2,10,13,10,10,TRUE,2241.300000011921,4,6,4,4,FALSE,FALSE
1,5,learned,76,5,2,3,4,NA,3,TRUE,3061.300000011921,2,2,2,2,FALSE,TRUE
1,5,learned,77,2,6,3,1,3,3,TRUE,3077.100000023842,3,NA,3,2,TRUE,FALSE
1,5,learned,78,4,8,2,3,2,2,TRUE,2261.2000000178814,3,4,3,3,FALSE,FALSE
1,5,learned,79,5,1,3,7,3,7,FALSE,6389.300000011921,3,5,3,3,FALSE,FALSE
1,5,learned,80,13,9,11,12,11,11,TRUE,3036.899999976158,2,3,2,2,FALSE,FALSE
1,5,learned,81,3,9,2,4,2,2,TRUE,3741.199999988079,4,5,4,4,FALSE,FALSE
1,5,learned,82,2,7,3,4,NA,4,TRUE,15757.30000001192,3,3,3,3,FALSE,TRUE
1,5,learned,83,4,1,2,6,2,2,TRUE,4341.0999999940395,2,6,2,2,FALSE,FALSE
1,5,learned,84,4,7,5,2,5,5,TRUE,5981.199999988079,2,4,2,2,FALSE,FALSE
1,5,learned,85,6,3,4,7,4,4,TRUE,3061.4000000059605,2,3,2,2,FALSE,FALSE
1,5,learned,86,1,13,8,2,8,8,TRUE,4695.300000011921,4,NA,4,4,TRUE,FALSE
1,5,learned,87,2,5,3,4,NA,3,TRUE,5149,2,2,2,2,FALSE,TRUE
1,5,learned,88,5,2,3,7,3,3,TRUE,2545,2,4,2,2,FALSE,FALSE
1,5,learned,89,12,8,11,13,11,11,TRUE,2317.199999988079,3,4,3,2,FALSE,FALSE
1,5,learned,90,9,2,8,11,8,8,TRUE,2209.300000011921,3,6,3,3,FALSE,FALSE
1,5,learned,91,6,8,4,7,4,4,TRUE,1885,4,6,4,4,FALSE,FALSE
1,5,learned,92,1,10,8,2,8,8,TRUE,2828.9000000059605,2,NA,2,2,TRUE,FALSE
1,5,learned,93,4,9,2,6,2,2,TRUE,2805.100000023842,4,8,4,4,FALSE,FALSE
1,5,learned,94,4,8,3,6,3,3,TRUE,6605.100000023842,4,7,4,3,FALSE,FALSE
1,5,learned,95,4,7,6,3,6,3,FALSE,1905.2000000178816,2,3,2,2,FALSE,FALSE
1,5,learned,96,3,9,2,5,2,2,TRUE,8237.5,4,6,4,4,FALSE,FALSE
1,5,learned,97,7,4,5,6,NA,6,TRUE,1781.199999988079,2,2,2,2,FALSE,TRUE
1,5,learned,98,3,8,2,4,2,4,FALSE,1477.300000011921,3,4,3,3,FALSE,FALSE
1,5,learned,99,8,2,1,10,1,10,FALSE,2319.800000011921,2,NA,2,2,TRUE,FALSE
1,5,learned,100,7,3,5,6,5,5,TRUE,9457.40000000596,2,3,2,2,FALSE,FALSE
1,5,learned,101,2,7,4,1,4,4,TRUE,6077.0999999940395,3,NA,3,3,TRUE,FALSE
1,5,learned,102,11,2,9,12,9,9,TRUE,4741,4,5,4,4,FALSE,FALSE
1,5,learned,103,13,10,12,11,12,12,TRUE,3197,2,3,2,2,FALSE,FALSE
1,5,learned,104,2,9,1,3,1,3,FALSE,2789,3,NA,3,3,TRUE,FALSE
1,5,learned,105,4,9,2,3,2,3,FALSE,2757.100000023842,4,5,4,4,FALSE,FALSE
1,5,learned,106,5,8,3,7,3,3,TRUE,7010.300000011921,4,6,4,4,FALSE,FALSE
1,5,learned,107,12,9,11,13,11,11,TRUE,3009.199999988079,2,3,2,2,FALSE,FALSE
1,5,learned,108,3,7,4,2,4,4,TRUE,8893.90000000596,3,4,3,2,FALSE,FALSE
1,5,learned,109,6,2,4,7,4,4,TRUE,1653.0999999940395,2,4,2,2,FALSE,FALSE
1,5,learned,110,2,8,1,3,1,3,FALSE,2216.0999999940395,2,NA,2,2,TRUE,FALSE
1,5,learned,111,12,9,11,10,11,10,FALSE,4973.4000000059605,2,3,2,2,FALSE,FALSE
1,5,learned,112,8,13,9,1,9,9,TRUE,3701.300000011921,3,NA,3,3,TRUE,FALSE
1,5,learned,113,2,9,1,4,1,4,FALSE,2845,3,NA,3,3,TRUE,FALSE
1,5,learned,114,4,1,5,6,5,6,FALSE,8181.5,4,6,4,2,FALSE,FALSE
1,5,learned,115,4,1,2,3,2,2,TRUE,1629,2,3,2,2,FALSE,FALSE
1,5,learned,116,8,12,10,9,10,10,TRUE,2317.5,2,3,2,2,FALSE,FALSE
1,5,learned,117,4,10,2,5,2,5,FALSE,6962.300000011921,4,6,4,4,FALSE,FALSE
1,5,learned,118,12,1,10,11,10,10,TRUE,5797,3,4,3,3,FALSE,FALSE
1,5,learned,119,2,8,1,4,1,1,TRUE,2477.7000000178814,2,NA,2,2,TRUE,FALSE
1,5,learned,120,8,4,1,9,1,9,FALSE,3293.300000011921,3,NA,3,3,TRUE,FALSE
1,5,learned,121,8,12,9,1,9,1,FALSE,4221,3,NA,3,2,TRUE,FALSE
1,5,learned,122,4,9,3,5,3,5,FALSE,7999.59999999404,5,6,5,4,FALSE,FALSE
1,5,learned,123,11,8,9,12,9,9,TRUE,2693.100000023842,2,3,2,2,FALSE,FALSE
1,5,learned,124,2,10,1,4,1,4,FALSE,7333.40000000596,3,NA,3,3,TRUE,FALSE
1,5,learned,125,11,8,9,13,9,9,TRUE,3205,2,4,2,2,FALSE,FALSE
1,5,learned,126,3,1,4,5,4,4,TRUE,12845.5,3,4,3,2,FALSE,FALSE
1,5,learned,127,1,5,2,8,2,2,TRUE,8189.199999988079,3,NA,3,3,TRUE,FALSE
1,5,learned,128,4,7,3,2,3,2,FALSE,13389.5,3,4,3,2,FALSE,FALSE
1,5,learned,129,9,10,8,11,8,11,FALSE,13813.19999998808,2,3,2,2,FALSE,FALSE
1,5,learned,130,8,13,9,10,NA,10,TRUE,1589,3,3,3,3,FALSE,TRUE
1,5,learned,131,11,1,9,12,9,9,TRUE,3165.300000011921,3,4,3,3,FALSE,FALSE
1,5,learned,132,4,7,5,3,5,5,TRUE,17998.59999999404,2,3,2,2,FALSE,FALSE
1,5,learned,133,1,9,8,2,8,2,FALSE,1564.800000011921,2,NA,2,2,TRUE,FALSE
1,5,learned,134,3,7,5,2,5,5,TRUE,1781.2000000178814,2,4,2,2,FALSE,FALSE
1,5,learned,135,10,2,8,12,8,8,TRUE,2727.5,3,6,3,3,FALSE,FALSE
1,5,learned,136,10,3,8,12,8,8,TRUE,1485.199999988079,4,7,4,4,FALSE,FALSE
1,5,learned,137,3,6,4,5,4,4,TRUE,2173.199999988079,2,3,2,2,FALSE,FALSE
1,5,learned,138,8,5,1,10,1,10,FALSE,1949,4,NA,4,4,TRUE,FALSE
1,5,learned,139,6,5,4,7,NA,4,TRUE,2701.300000011921,2,2,2,2,FALSE,TRUE
1,5,learned,140,5,6,7,3,7,3,FALSE,1589,2,3,2,2,FALSE,FALSE
1,5,learned,141,8,11,9,10,9,10,FALSE,2233.2000000178814,2,3,2,2,FALSE,FALSE
1,5,learned,142,11,1,9,13,9,9,TRUE,2645.0999999940395,3,5,3,3,FALSE,FALSE
1,5,learned,143,11,10,12,9,12,9,FALSE,3317.100000023842,2,3,2,2,FALSE,FALSE
1,5,learned,144,3,1,2,4,2,2,TRUE,2534.5999999940395,2,3,2,2,FALSE,FALSE
1,5,learned,145,2,10,1,3,1,3,FALSE,3453.300000011921,3,NA,3,3,TRUE,FALSE
1,5,learned,146,9,12,11,8,11,11,TRUE,3421.300000011921,2,3,2,2,FALSE,FALSE
1,5,learned,147,13,8,11,12,NA,12,TRUE,7141.199999988079,3,3,3,3,FALSE,TRUE
1,5,learned,148,2,5,4,1,4,4,TRUE,7349.09999999404,2,NA,2,2,TRUE,FALSE
1,5,learned,149,5,8,4,7,4,4,TRUE,8781.09999999404,4,6,4,4,FALSE,FALSE
1,5,learned,150,9,3,8,11,8,8,TRUE,1845.300000011921,4,7,4,4,FALSE,FALSE
1,5,learned,151,2,11,1,4,1,4,FALSE,9637.5,4,NA,4,4,TRUE,FALSE
1,5,learned,152,12,2,11,13,11,11,TRUE,2313.0999999940395,5,6,5,4,FALSE,FALSE
1,5,learned,153,2,7,3,1,3,1,FALSE,6554.699999988079,3,NA,3,3,TRUE,FALSE
1,5,learned,154,9,1,8,11,8,8,TRUE,2005.199999988079,2,5,2,2,FALSE,FALSE
1,5,learned,155,4,10,3,6,3,3,TRUE,1329.0999999940395,5,8,5,4,FALSE,FALSE
1,5,learned,156,8,2,1,9,1,9,FALSE,2069.600000023842,2,NA,2,2,TRUE,FALSE
1,5,learned,157,4,10,2,3,2,3,FALSE,4345.300000011921,4,5,4,4,FALSE,FALSE
1,5,learned,158,2,11,1,3,1,1,TRUE,2357,4,NA,4,4,TRUE,FALSE
1,5,learned,159,11,10,12,13,12,12,TRUE,1429.0999999940395,2,3,2,2,FALSE,FALSE
1,6,learned,1,1,3,2,8,2,2,TRUE,5735.299999982119,2,NA,2,2,TRUE,FALSE
1,6,learned,2,2,5,4,1,4,4,TRUE,3239.699999988079,2,NA,2,2,TRUE,FALSE
1,6,learned,3,8,6,1,9,1,9,FALSE,3847.300000011921,4,NA,4,4,TRUE,FALSE
1,6,learned,4,8,12,10,1,10,10,TRUE,2183.199999988079,2,NA,2,2,TRUE,FALSE
1,6,learned,5,4,7,5,2,5,5,TRUE,11073.19999998808,2,4,2,2,FALSE,FALSE
1,6,learned,6,13,8,11,12,NA,11,TRUE,10279.399999976158,3,3,3,3,FALSE,TRUE
1,6,learned,7,5,6,7,3,7,7,TRUE,4295.299999982119,2,3,2,2,FALSE,FALSE
1,6,learned,8,9,3,8,11,8,11,FALSE,5047.299999982119,4,7,4,4,FALSE,FALSE
1,6,learned,9,8,11,10,1,10,10,TRUE,17399.59999999404,3,NA,3,2,TRUE,FALSE
1,6,learned,10,12,2,10,11,10,10,TRUE,24180.70000001788,4,5,4,4,FALSE,FALSE
1,6,learned,11,8,3,1,10,1,1,TRUE,7167.5,3,NA,3,3,TRUE,FALSE
1,6,learned,12,4,8,2,5,2,2,TRUE,8871.5,3,5,3,3,FALSE,FALSE
1,6,learned,13,6,8,4,7,4,4,TRUE,11903.399999976158,4,6,4,4,FALSE,FALSE
1,6,learned,14,1,13,8,2,8,8,TRUE,13743.5,4,NA,4,4,TRUE,FALSE
1,6,learned,15,10,3,8,12,8,8,TRUE,17743.399999976158,4,7,4,4,FALSE,FALSE
1,6,learned,16,8,13,10,1,10,10,TRUE,3467.4000000059605,3,NA,3,3,TRUE,FALSE
1,6,learned,17,3,9,2,4,2,2,TRUE,11331.79999998212,4,5,4,4,FALSE,FALSE
1,6,learned,18,5,2,3,4,NA,3,TRUE,4287.200000017881,2,2,2,2,FALSE,TRUE
1,6,learned,19,5,6,4,7,NA,7,TRUE,2511.300000011921,2,2,2,2,FALSE,TRUE
1,6,learned,20,5,6,4,3,4,4,TRUE,5007.5999999940395,2,3,2,2,FALSE,FALSE
1,6,learned,21,8,6,1,10,1,1,TRUE,4304.5999999940395,4,NA,4,4,TRUE,FALSE
1,6,learned,22,6,5,4,7,NA,4,TRUE,3895.5,2,2,2,2,FALSE,TRUE
1,6,learned,23,4,7,3,2,3,3,TRUE,5535.199999988079,3,4,3,2,FALSE,FALSE
1,6,learned,24,11,8,9,12,9,12,FALSE,6099.299999982119,2,3,2,2,FALSE,FALSE
1,6,learned,25,11,10,12,13,12,12,TRUE,3247.4000000059605,2,3,2,2,FALSE,FALSE
1,6,learned,26,4,10,5,6,5,5,TRUE,7679.399999976158,6,8,6,4,FALSE,FALSE
1,6,learned,27,4,7,6,3,6,6,TRUE,3615.400000005961,2,3,2,2,FALSE,FALSE
1,6,learned,28,1,9,8,2,8,8,TRUE,6239.5,2,NA,2,2,TRUE,FALSE
1,6,learned,29,10,11,12,8,12,12,TRUE,2247.4000000059605,2,3,2,2,FALSE,FALSE
1,6,learned,30,13,9,11,12,11,12,FALSE,8503.90000000596,2,3,2,2,FALSE,FALSE
1,6,learned,31,1,4,2,8,2,2,TRUE,6047.5,2,NA,2,2,TRUE,FALSE
1,6,learned,32,12,1,10,11,10,10,TRUE,10903.600000023842,3,4,3,3,FALSE,FALSE
1,6,learned,33,6,2,4,7,4,4,TRUE,6599.299999982119,2,4,2,2,FALSE,FALSE
1,6,learned,34,11,1,9,12,9,12,FALSE,5751.300000011921,3,4,3,3,FALSE,FALSE
1,6,learned,35,4,7,6,2,6,6,TRUE,16055.600000023842,2,4,2,2,FALSE,FALSE
1,6,learned,36,3,8,2,4,2,2,TRUE,8255.700000017881,3,4,3,3,FALSE,FALSE
1,6,learned,37,4,10,3,6,3,3,TRUE,13055.70000001788,5,8,5,4,FALSE,FALSE
1,6,learned,38,11,8,9,13,9,9,TRUE,5249.5999999940395,2,4,2,2,FALSE,FALSE
1,6,learned,39,8,12,10,9,10,10,TRUE,1967.2999999821184,2,3,2,2,FALSE,FALSE
1,6,learned,40,10,9,8,12,8,8,TRUE,3487.199999988079,2,3,2,2,FALSE,FALSE
1,6,learned,41,10,13,12,8,12,12,TRUE,4777.0999999940395,2,4,2,2,FALSE,FALSE
1,6,learned,42,13,1,11,12,NA,12,TRUE,5991.299999982119,4,4,4,4,FALSE,TRUE
1,6,learned,43,4,8,5,6,5,6,FALSE,3823.199999988079,5,7,5,3,FALSE,FALSE
1,6,learned,44,4,9,3,6,3,3,TRUE,9015.399999976158,5,8,5,4,FALSE,FALSE
1,6,learned,45,2,5,3,1,3,3,TRUE,6735.299999982119,2,NA,2,2,TRUE,FALSE
1,6,learned,46,4,7,5,3,5,5,TRUE,5127.299999982119,2,3,2,2,FALSE,FALSE
1,6,learned,47,1,12,8,2,8,8,TRUE,5179.9000000059605,3,NA,3,3,TRUE,FALSE
1,6,learned,48,12,9,11,10,11,10,FALSE,3159.199999988079,2,3,2,2,FALSE,FALSE
1,6,learned,49,3,9,4,5,4,4,TRUE,7183.399999976158,5,6,5,4,FALSE,FALSE
1,6,learned,50,7,3,5,6,5,6,FALSE,4226.4000000059605,2,3,2,2,FALSE,FALSE
1,6,learned,51,8,11,9,10,9,10,FALSE,5703.200000017881,2,3,2,2,FALSE,FALSE
1,6,learned,52,8,11,9,1,9,9,TRUE,6835.199999988079,2,NA,2,2,TRUE,FALSE
1,6,learned,53,4,1,3,6,3,3,TRUE,7335.300000011921,3,6,3,2,FALSE,FALSE
1,6,learned,54,8,13,9,10,NA,9,TRUE,15895.59999999404,3,3,3,3,FALSE,TRUE
1,6,learned,55,3,7,5,4,5,4,FALSE,6823.299999982119,2,3,2,2,FALSE,FALSE
1,6,learned,56,6,3,4,7,4,7,FALSE,3747.199999988079,2,3,2,2,FALSE,FALSE
1,6,learned,57,4,7,5,6,NA,6,TRUE,3263.2000000178814,2,2,2,2,FALSE,TRUE
1,6,learned,58,7,4,5,6,NA,5,TRUE,3799.2999999821186,2,2,2,2,FALSE,TRUE
1,6,learned,59,3,8,2,5,2,2,TRUE,4995.199999988079,3,5,3,3,FALSE,FALSE
1,6,learned,60,3,7,4,2,4,4,TRUE,5047.199999988079,3,4,3,2,FALSE,FALSE
1,6,learned,61,8,4,1,10,1,1,TRUE,17375.70000001788,3,NA,3,3,TRUE,FALSE
1,6,learned,62,5,8,3,4,NA,4,TRUE,7599.5,4,4,4,4,FALSE,TRUE
1,6,learned,63,4,9,2,6,2,6,FALSE,9783.399999976158,4,8,4,4,FALSE,FALSE
1,6,learned,64,10,1,8,12,8,8,TRUE,16847.5,2,5,2,2,FALSE,FALSE
1,6,learned,65,13,10,12,11,12,12,TRUE,1559.199999988079,2,3,2,2,FALSE,FALSE
1,6,learned,66,12,8,11,13,11,11,TRUE,11519.69999998808,3,4,3,2,FALSE,FALSE
1,6,learned,67,3,6,4,5,4,5,FALSE,9675.399999976158,2,3,2,2,FALSE,FALSE
1,6,learned,68,5,2,3,7,3,3,TRUE,2559.199999988079,2,4,2,2,FALSE,FALSE
1,6,learned,69,2,8,1,4,1,1,TRUE,6103.5999999940395,2,NA,2,2,TRUE,FALSE
1,6,learned,70,4,10,3,5,3,3,TRUE,6623.5,5,6,5,4,FALSE,FALSE
1,6,learned,71,9,1,8,11,8,8,TRUE,2215.300000011921,2,5,2,2,FALSE,FALSE
1,6,learned,72,2,6,4,1,4,4,TRUE,3127.699999988079,2,NA,2,2,TRUE,FALSE
1,6,learned,73,9,13,11,8,11,11,TRUE,2375.2000000178814,2,4,2,2,FALSE,FALSE
1,6,learned,74,4,9,2,5,2,2,TRUE,10719.59999999404,4,6,4,4,FALSE,FALSE
1,6,learned,75,2,6,3,1,3,3,TRUE,3015.199999988079,3,NA,3,2,TRUE,FALSE
1,6,learned,76,12,1,10,13,10,10,TRUE,7383.699999988079,3,5,3,3,FALSE,FALSE
1,6,learned,77,3,6,2,5,NA,5,TRUE,3593.300000011921,3,3,3,2,FALSE,TRUE
1,6,learned,78,4,1,2,6,2,2,TRUE,4151.200000017881,2,6,2,2,FALSE,FALSE
1,6,learned,79,2,8,1,3,1,1,TRUE,4887.299999982119,2,NA,2,2,TRUE,FALSE
1,6,learned,80,4,10,2,6,2,2,TRUE,4151.299999982119,4,8,4,4,FALSE,FALSE
1,6,learned,81,8,5,1,10,1,10,FALSE,7399.5,4,NA,4,4,TRUE,FALSE
1,6,learned,82,5,8,3,7,3,7,FALSE,7335.199999988079,4,6,4,4,FALSE,FALSE
1,6,learned,83,9,2,8,11,8,8,TRUE,3943.199999988079,3,6,3,3,FALSE,FALSE
1,6,learned,84,12,1,11,13,11,11,TRUE,3799.300000011921,4,5,4,3,FALSE,FALSE
1,6,learned,85,8,12,9,1,9,9,TRUE,2623.2999999821186,3,NA,3,2,TRUE,FALSE
1,6,learned,86,4,1,2,5,2,2,TRUE,4167.5999999940395,2,4,2,2,FALSE,FALSE
1,6,learned,87,7,1,5,6,NA,6,TRUE,3415.2999999821186,4,4,4,4,FALSE,TRUE
1,6,learned,88,12,2,11,13,11,11,TRUE,12345.600000023842,5,6,5,4,FALSE,FALSE
1,6,learned,89,3,8,4,5,4,4,TRUE,5559.199999988079,4,5,4,3,FALSE,FALSE
1,6,learned,90,11,2,9,13,9,9,TRUE,3359.199999988079,4,6,4,4,FALSE,FALSE
1,6,learned,91,2,9,1,4,1,4,FALSE,6616.9000000059605,3,NA,3,3,TRUE,FALSE
1,6,learned,92,11,8,12,13,12,12,TRUE,10567.5,3,4,3,2,FALSE,FALSE
1,6,learned,93,3,6,4,2,4,2,FALSE,6231.699999988079,2,3,2,2,FALSE,FALSE
1,6,learned,94,5,1,3,4,NA,4,TRUE,8063.199999988079,3,3,3,3,FALSE,TRUE
1,6,learned,95,3,10,2,5,2,5,FALSE,5839.299999982119,4,6,4,4,FALSE,FALSE
1,6,learned,96,2,5,3,4,NA,4,TRUE,2143.199999988079,2,2,2,2,FALSE,TRUE
1,6,learned,97,1,10,8,2,8,8,TRUE,3575.5,2,NA,2,2,TRUE,FALSE
1,6,learned,98,9,12,11,8,11,8,FALSE,2343.199999988079,2,3,2,2,FALSE,FALSE
1,6,learned,99,8,5,1,9,1,9,FALSE,3103.199999988079,4,NA,4,4,TRUE,FALSE
1,6,learned,100,12,9,10,13,NA,10,TRUE,7791.600000023842,3,3,3,2,FALSE,TRUE
1,6,learned,101,3,10,2,4,2,4,FALSE,6567.299999982119,4,5,4,4,FALSE,FALSE
1,6,learned,102,2,7,4,1,4,4,TRUE,2727.399999976158,3,NA,3,3,TRUE,FALSE
1,6,learned,103,2,9,1,3,1,1,TRUE,2359.199999988079,3,NA,3,3,TRUE,FALSE
1,6,learned,104,11,2,12,13,12,13,FALSE,4612.4000000059605,5,6,5,4,FALSE,FALSE
1,6,learned,105,2,7,3,4,NA,4,TRUE,6343.4000000059605,3,3,3,3,FALSE,TRUE
1,6,learned,106,1,6,2,8,2,2,TRUE,8483.899999976158,3,NA,3,3,TRUE,FALSE
1,6,learned,107,5,2,4,7,4,4,TRUE,6404.0999999940395,2,4,2,2,FALSE,FALSE
1,6,learned,108,8,3,1,9,1,1,TRUE,10015.399999976158,3,NA,3,3,TRUE,FALSE
1,6,learned,109,3,10,4,5,4,4,TRUE,12527.600000023842,5,6,5,4,FALSE,FALSE
1,6,learned,110,8,2,1,10,1,1,TRUE,5143.4000000059605,2,NA,2,2,TRUE,FALSE
1,6,learned,111,5,1,3,7,3,3,TRUE,5543.299999982119,3,5,3,3,FALSE,FALSE
1,6,learned,112,9,4,8,11,8,11,FALSE,27327.39999997616,4,7,4,4,FALSE,FALSE
1,6,learned,113,4,9,2,3,2,2,TRUE,8967.299999982119,4,5,4,4,FALSE,FALSE
1,6,learned,114,11,1,9,13,9,9,TRUE,4647.4000000059605,3,5,3,3,FALSE,FALSE
1,6,learned,115,8,13,9,1,9,9,TRUE,2727.4000000059605,3,NA,3,3,TRUE,FALSE
1,6,learned,116,11,10,12,9,12,12,TRUE,1679.5,2,3,2,2,FALSE,FALSE
1,6,learned,117,3,7,5,2,5,5,TRUE,30911.69999998808,2,4,2,2,FALSE,FALSE
1,6,learned,118,4,8,2,6,2,2,TRUE,13343.399999976158,3,7,3,3,FALSE,FALSE
1,6,learned,119,4,10,2,3,2,2,TRUE,5783.0999999940395,4,5,4,4,FALSE,FALSE
1,6,learned,120,12,9,11,13,11,11,TRUE,4233.5999999940395,2,3,2,2,FALSE,FALSE
1,6,learned,121,4,1,5,6,5,6,FALSE,4799.0999999940395,4,6,4,2,FALSE,FALSE
1,6,learned,122,7,2,5,6,NA,6,TRUE,2031.300000011921,3,3,3,3,FALSE,TRUE
1,6,learned,123,10,2,8,12,8,8,TRUE,2095.2000000178814,3,6,3,3,FALSE,FALSE
1,6,learned,124,4,10,2,5,2,2,TRUE,5287.5999999940395,4,6,4,4,FALSE,FALSE
1,6,learned,125,4,9,3,5,3,3,TRUE,27511.5,5,6,5,4,FALSE,FALSE
1,6,learned,126,4,1,3,5,3,3,TRUE,2335.2999999821186,3,4,3,2,FALSE,FALSE
1,6,learned,127,1,5,2,8,2,2,TRUE,4535.699999988079,3,NA,3,3,TRUE,FALSE
1,6,learned,128,8,2,1,9,1,1,TRUE,1919.199999988079,2,NA,2,2,TRUE,FALSE
1,6,learned,129,8,4,1,9,1,1,TRUE,4943.4000000059605,3,NA,3,3,TRUE,FALSE
1,6,learned,130,2,6,4,3,4,4,TRUE,2127.2999999821186,2,3,2,2,FALSE,FALSE
1,6,learned,131,12,8,10,13,10,10,TRUE,2295.5999999940395,2,4,2,2,FALSE,FALSE
1,6,learned,132,3,9,2,5,2,2,TRUE,11855.69999998808,4,6,4,4,FALSE,FALSE
1,6,learned,133,4,8,3,6,3,6,FALSE,15607.5,4,7,4,3,FALSE,FALSE
1,6,learned,134,9,10,8,11,8,8,TRUE,3079.399999976158,2,3,2,2,FALSE,FALSE
1,6,learned,135,4,8,3,5,3,3,TRUE,2519.4000000059605,4,5,4,3,FALSE,FALSE
1,6,learned,136,1,11,8,2,8,8,TRUE,7754.200000017881,3,NA,3,3,TRUE,FALSE
1,6,learned,137,11,10,9,13,NA,9,TRUE,5911.199999988079,3,3,3,2,FALSE,TRUE
1,6,learned,138,2,12,1,4,1,1,TRUE,3367.4000000059605,4,NA,4,4,TRUE,FALSE
1,6,learned,139,2,11,1,3,1,1,TRUE,4147.199999988079,4,NA,4,4,TRUE,FALSE
1,6,learned,140,5,1,4,7,4,7,FALSE,7515.299999982119,3,5,3,3,FALSE,FALSE
1,6,learned,141,11,2,9,12,9,9,TRUE,4927.199999988079,4,5,4,4,FALSE,FALSE
1,6,learned,142,2,7,3,1,3,3,TRUE,7999.5,3,NA,3,3,TRUE,FALSE
1,6,learned,143,2,11,1,4,1,1,TRUE,4911.399999976158,4,NA,4,4,TRUE,FALSE
1,6,learned,144,12,8,10,11,10,10,TRUE,2031.199999988079,2,3,2,2,FALSE,FALSE
1,6,learned,145,3,1,2,5,2,2,TRUE,24379.59999999404,2,4,2,2,FALSE,FALSE
1,6,learned,146,12,2,10,13,10,10,TRUE,8591.40000000596,4,6,4,4,FALSE,FALSE
1,6,learned,147,1,7,2,8,2,2,TRUE,7351.299999982119,4,NA,4,4,TRUE,FALSE
1,6,learned,148,2,12,1,3,1,1,TRUE,5089.5,4,NA,4,4,TRUE,FALSE
1,6,learned,149,10,4,8,12,8,12,FALSE,2985.300000011921,4,7,4,4,FALSE,FALSE
1,6,learned,150,5,8,4,7,4,4,TRUE,9999.5,4,6,4,4,FALSE,FALSE
1,6,learned,151,2,10,1,3,1,1,TRUE,6431.299999982119,3,NA,3,3,TRUE,FALSE
1,6,learned,152,4,1,2,3,2,2,TRUE,1647.0999999940395,2,3,2,2,FALSE,FALSE
1,6,learned,153,3,1,4,5,4,4,TRUE,6583.5999999940395,3,4,3,2,FALSE,FALSE
1,6,learned,154,4,9,5,6,5,6,FALSE,5247.299999982119,6,8,6,4,FALSE,FALSE
1,6,learned,155,11,1,12,13,12,12,TRUE,6495.299999982119,4,5,4,3,FALSE,FALSE
1,6,learned,156,2,10,1,4,1,1,TRUE,2856.4000000059605,3,NA,3,3,TRUE,FALSE
1,6,learned,157,6,1,4,7,4,4,TRUE,3471.5,3,5,3,3,FALSE,FALSE
1,6,learned,158,4,8,2,3,2,2,TRUE,2631.2999999821186,3,4,3,3,FALSE,FALSE
1,6,learned,159,3,1,2,4,2,2,TRUE,2575.0999999940395,2,3,2,2,FALSE,FALSE
1,7,learned,1,4,9,5,6,5,6,FALSE,3144.599999964237,6,8,6,4,FALSE,FALSE
1,7,learned,2,1,7,2,8,2,8,FALSE,5396.099999964237,4,NA,4,4,TRUE,FALSE
1,7,learned,3,4,9,2,6,2,6,FALSE,2644.5,4,8,4,4,FALSE,FALSE
1,7,learned,4,4,7,6,2,6,6,TRUE,6188.900000035763,2,4,2,2,FALSE,FALSE
1,7,learned,5,11,2,12,13,12,13,FALSE,5850.100000023842,5,6,5,4,FALSE,FALSE
1,7,learned,6,3,10,2,4,2,4,FALSE,7057.899999976158,4,5,4,4,FALSE,FALSE
1,7,learned,7,8,4,1,9,1,1,TRUE,5423.099999964237,3,NA,3,3,TRUE,FALSE
1,7,learned,8,2,7,4,1,4,4,TRUE,8388.400000035763,3,NA,3,3,TRUE,FALSE
1,7,learned,9,8,5,1,10,1,10,FALSE,5687.899999976158,4,NA,4,4,TRUE,FALSE
1,7,learned,10,11,8,12,13,12,12,TRUE,6566.600000023842,3,4,3,2,FALSE,FALSE
1,7,learned,11,11,1,12,13,12,12,TRUE,2823.599999964237,4,5,4,3,FALSE,FALSE
1,7,learned,12,9,2,8,11,8,11,FALSE,7224,3,6,3,3,FALSE,FALSE
1,7,learned,13,3,9,4,5,4,5,FALSE,6139.900000035763,5,6,5,4,FALSE,FALSE
1,7,learned,14,8,11,9,10,9,9,TRUE,5509.900000035763,2,3,2,2,FALSE,FALSE
1,7,learned,15,3,9,2,5,2,2,TRUE,6082.099999964237,4,6,4,4,FALSE,FALSE
1,7,learned,16,9,3,8,11,8,8,TRUE,7557.899999976158,4,7,4,4,FALSE,FALSE
1,7,learned,17,5,8,3,7,3,7,FALSE,3813,4,6,4,4,FALSE,FALSE
1,7,learned,18,12,9,10,13,NA,10,TRUE,6089,3,3,3,2,FALSE,TRUE
1,7,learned,19,5,8,4,7,4,7,FALSE,6184.599999964237,4,6,4,4,FALSE,FALSE
1,7,learned,20,11,1,9,12,9,12,FALSE,4782.5,3,4,3,3,FALSE,FALSE
1,7,learned,21,11,2,9,12,9,9,TRUE,5746.100000023842,4,5,4,4,FALSE,FALSE
1,7,learned,22,11,10,12,13,12,12,TRUE,6702.199999988079,2,3,2,2,FALSE,FALSE
1,7,learned,23,4,9,3,5,3,3,TRUE,7222.600000023842,5,6,5,4,FALSE,FALSE
1,7,learned,24,2,10,1,4,1,1,TRUE,5555.199999988079,3,NA,3,3,TRUE,FALSE
1,7,learned,25,1,12,8,2,8,8,TRUE,5983.899999976158,3,NA,3,3,TRUE,FALSE
1,7,learned,26,7,4,5,6,NA,6,TRUE,4059.199999988079,2,2,2,2,FALSE,TRUE
1,7,learned,27,8,5,1,9,1,9,FALSE,7508.199999988079,4,NA,4,4,TRUE,FALSE
1,7,learned,28,3,7,5,2,5,5,TRUE,5317.900000035763,2,4,2,2,FALSE,FALSE
1,7,learned,29,12,8,10,13,10,10,TRUE,3974.5,2,4,2,2,FALSE,FALSE
1,7,learned,30,4,1,3,6,3,6,FALSE,11138.30000001192,3,6,3,2,FALSE,FALSE
1,7,learned,31,1,4,2,8,2,2,TRUE,5262.5,2,NA,2,2,TRUE,FALSE
1,7,learned,32,1,13,8,2,8,2,FALSE,4317.300000011921,4,NA,4,4,TRUE,FALSE
1,7,learned,33,8,2,1,9,1,1,TRUE,4936.899999976158,2,NA,2,2,TRUE,FALSE
1,7,learned,34,4,10,3,6,3,6,FALSE,2422.599999964237,5,8,5,4,FALSE,FALSE
1,7,learned,35,5,6,4,3,4,3,FALSE,11642.5,2,3,2,2,FALSE,FALSE
1,7,learned,36,1,11,8,2,8,2,FALSE,4814.899999976158,3,NA,3,3,TRUE,FALSE
1,7,learned,37,12,2,10,13,10,13,FALSE,3126.800000011921,4,6,4,4,FALSE,FALSE
1,7,learned,38,2,9,1,3,1,1,TRUE,11049,3,NA,3,3,TRUE,FALSE
1,7,learned,39,4,1,2,6,2,2,TRUE,3143.300000011921,2,6,2,2,FALSE,FALSE
1,7,learned,40,1,9,8,2,8,8,TRUE,1500,2,NA,2,2,TRUE,FALSE
1,7,learned,41,13,8,11,12,NA,12,TRUE,6274.899999976158,3,3,3,3,FALSE,TRUE
1,7,learned,42,4,7,5,2,5,5,TRUE,3617.399999976158,2,4,2,2,FALSE,FALSE
1,7,learned,43,12,8,10,11,10,10,TRUE,1722,2,3,2,2,FALSE,FALSE
1,7,learned,44,2,11,1,3,1,1,TRUE,3825.399999976158,4,NA,4,4,TRUE,FALSE
1,7,learned,45,13,9,11,12,11,11,TRUE,1425.199999988079,2,3,2,2,FALSE,FALSE
1,7,learned,46,8,3,1,9,1,1,TRUE,5936.199999988079,3,NA,3,3,TRUE,FALSE
1,7,learned,47,2,5,4,1,4,4,TRUE,2363.300000011921,2,NA,2,2,TRUE,FALSE
1,7,learned,48,8,12,10,9,10,10,TRUE,1364.100000023842,2,3,2,2,FALSE,FALSE
1,7,learned,49,10,2,8,12,8,8,TRUE,4523.899999976158,3,6,3,3,FALSE,FALSE
1,7,learned,50,4,8,2,6,2,2,TRUE,2493,3,7,3,3,FALSE,FALSE
1,7,learned,51,12,9,11,10,11,11,TRUE,1567.600000023842,2,3,2,2,FALSE,FALSE
1,7,learned,52,8,13,10,1,10,1,FALSE,3736.899999976158,3,NA,3,3,TRUE,FALSE
1,7,learned,53,8,11,10,1,10,1,FALSE,2946.699999988079,3,NA,3,2,TRUE,FALSE
1,7,learned,54,8,2,1,10,1,1,TRUE,2669,2,NA,2,2,TRUE,FALSE
1,7,learned,55,4,1,3,5,3,3,TRUE,3497.5,3,4,3,2,FALSE,FALSE
1,7,learned,56,4,7,3,2,3,3,TRUE,7117,3,4,3,2,FALSE,FALSE
1,7,learned,57,8,11,9,1,9,9,TRUE,5717.199999988079,2,NA,2,2,TRUE,FALSE
1,7,learned,58,5,2,4,7,4,4,TRUE,4879.5,2,4,2,2,FALSE,FALSE
1,7,learned,59,11,10,12,9,12,12,TRUE,1925.5,2,3,2,2,FALSE,FALSE
1,7,learned,60,7,2,5,6,NA,5,TRUE,4489.5,3,3,3,3,FALSE,TRUE
1,7,learned,61,4,10,5,6,5,6,FALSE,1926.2999999523165,6,8,6,4,FALSE,FALSE
1,7,learned,62,3,1,4,5,4,4,TRUE,4350.699999988079,3,4,3,2,FALSE,FALSE
1,7,learned,63,1,10,8,2,8,8,TRUE,2445.099999964237,2,NA,2,2,TRUE,FALSE
1,7,learned,64,4,10,3,5,3,5,FALSE,4555.199999988079,5,6,5,4,FALSE,FALSE
1,7,learned,65,2,11,1,4,1,1,TRUE,5698.799999952316,4,NA,4,4,TRUE,FALSE
1,7,learned,66,10,13,12,8,12,12,TRUE,2898.100000023842,2,4,2,2,FALSE,FALSE
1,7,learned,67,5,1,3,4,NA,4,TRUE,9431.899999976158,3,3,3,3,FALSE,TRUE
1,7,learned,68,4,8,3,5,3,5,FALSE,13497.099999964235,4,5,4,3,FALSE,FALSE
1,7,learned,69,2,7,3,4,NA,4,TRUE,3901.5,3,3,3,3,FALSE,TRUE
1,7,learned,70,6,1,4,7,4,7,FALSE,5074.400000035763,3,5,3,3,FALSE,FALSE
1,7,learned,71,3,10,2,5,2,2,TRUE,5056.5,4,6,4,4,FALSE,FALSE
1,7,learned,72,3,8,2,4,2,2,TRUE,7024,3,4,3,3,FALSE,FALSE
1,7,learned,73,6,5,4,7,NA,7,TRUE,4865.900000035763,2,2,2,2,FALSE,TRUE
1,7,learned,74,5,1,3,7,3,3,TRUE,10668.80000001192,3,5,3,3,FALSE,FALSE
1,7,learned,75,4,1,5,6,5,5,TRUE,6213.900000035763,4,6,4,2,FALSE,FALSE
1,7,learned,76,11,10,9,13,NA,13,TRUE,6659.199999988079,3,3,3,2,FALSE,TRUE
1,7,learned,77,3,1,2,4,2,2,TRUE,4349.699999988079,2,3,2,2,FALSE,FALSE
1,7,learned,78,13,10,12,11,12,12,TRUE,3225.5,2,3,2,2,FALSE,FALSE
1,7,learned,79,12,8,11,13,11,13,FALSE,6726.600000023842,3,4,3,2,FALSE,FALSE
1,7,learned,80,3,7,4,2,4,4,TRUE,7687.199999988079,3,4,3,2,FALSE,FALSE
1,7,learned,81,2,9,1,4,1,1,TRUE,6670.199999988079,3,NA,3,3,TRUE,FALSE
1,7,learned,82,4,9,3,6,3,3,TRUE,10410.80000001192,5,8,5,4,FALSE,FALSE
1,7,learned,83,9,13,11,8,11,11,TRUE,5785.699999988079,2,4,2,2,FALSE,FALSE
1,7,learned,84,8,12,10,1,10,10,TRUE,2296.5,2,NA,2,2,TRUE,FALSE
1,7,learned,85,5,1,4,7,4,4,TRUE,3708.199999988079,3,5,3,3,FALSE,FALSE
1,7,learned,86,10,3,8,12,8,8,TRUE,10007.30000001192,4,7,4,4,FALSE,FALSE
1,7,learned,87,2,6,4,3,4,4,TRUE,7482.300000011921,2,3,2,2,FALSE,FALSE
1,7,learned,88,6,8,4,7,4,4,TRUE,6281.199999988079,4,6,4,4,FALSE,FALSE
1,7,learned,89,9,10,8,11,8,8,TRUE,4023.899999976158,2,3,2,2,FALSE,FALSE
1,7,learned,90,9,1,8,11,8,11,FALSE,2608.400000035763,2,5,2,2,FALSE,FALSE
1,7,learned,91,5,2,3,7,3,3,TRUE,3601.800000011921,2,4,2,2,FALSE,FALSE
1,7,learned,92,11,2,9,13,9,13,FALSE,2810.599999964237,4,6,4,4,FALSE,FALSE
1,7,learned,93,8,3,1,10,1,1,TRUE,3003.2999999523163,3,NA,3,3,TRUE,FALSE
1,7,learned,94,3,7,5,4,5,5,TRUE,6829.199999988079,2,3,2,2,FALSE,FALSE
1,7,learned,95,10,11,12,8,12,12,TRUE,3360.399999976158,2,3,2,2,FALSE,FALSE
1,7,learned,96,8,4,1,10,1,10,FALSE,4847.100000023842,3,NA,3,3,TRUE,FALSE
1,7,learned,97,8,6,1,10,1,10,FALSE,2265.100000023842,4,NA,4,4,TRUE,FALSE
1,7,learned,98,9,12,11,8,11,11,TRUE,3286,2,3,2,2,FALSE,FALSE
1,7,learned,99,2,5,3,1,3,3,TRUE,2521.300000011921,2,NA,2,2,TRUE,FALSE
1,7,learned,100,3,6,4,5,4,4,TRUE,12159.80000001192,2,3,2,2,FALSE,FALSE
1,7,learned,101,4,7,5,3,5,5,TRUE,2913.2000000476837,2,3,2,2,FALSE,FALSE
1,7,learned,102,4,7,6,3,6,6,TRUE,5615.400000035763,2,3,2,2,FALSE,FALSE
1,7,learned,103,2,12,1,4,1,4,FALSE,7084.600000023842,4,NA,4,4,TRUE,FALSE
1,7,learned,104,3,1,2,5,2,2,TRUE,3120.199999988079,2,4,2,2,FALSE,FALSE
1,7,learned,105,7,3,5,6,5,5,TRUE,2672.199999988079,2,3,2,2,FALSE,FALSE
1,7,learned,106,1,3,2,8,2,2,TRUE,4035.5,2,NA,2,2,TRUE,FALSE
1,7,learned,107,2,8,1,4,1,4,FALSE,8843.699999988079,2,NA,2,2,TRUE,FALSE
1,7,learned,108,3,8,2,5,2,2,TRUE,6604.400000035763,3,5,3,3,FALSE,FALSE
1,7,learned,109,12,9,11,13,11,11,TRUE,1603.899999976158,2,3,2,2,FALSE,FALSE
1,7,learned,110,1,6,2,8,2,2,TRUE,13451.19999998808,3,NA,3,3,TRUE,FALSE
1,7,learned,111,8,6,1,9,1,1,TRUE,2879.300000011921,4,NA,4,4,TRUE,FALSE
1,7,learned,112,9,4,8,11,8,8,TRUE,5699.699999988079,4,7,4,4,FALSE,FALSE
1,7,learned,113,4,8,3,6,3,3,TRUE,6982.100000023842,4,7,4,3,FALSE,FALSE
1,7,learned,114,10,4,8,12,8,8,TRUE,2727.400000035763,4,7,4,4,FALSE,FALSE
1,7,learned,115,4,8,5,6,5,5,TRUE,2788,5,7,5,3,FALSE,FALSE
1,7,learned,116,5,6,7,3,7,7,TRUE,2600.300000011921,2,3,2,2,FALSE,FALSE
1,7,learned,117,4,10,2,5,2,2,TRUE,7649.399999976158,4,6,4,4,FALSE,FALSE
1,7,learned,118,1,5,2,8,2,2,TRUE,6267.5,3,NA,3,3,TRUE,FALSE
1,7,learned,119,5,2,3,4,NA,4,TRUE,7708.800000011921,2,2,2,2,FALSE,TRUE
1,7,learned,120,10,1,8,12,8,12,FALSE,5300.600000023842,2,5,2,2,FALSE,FALSE
1,7,learned,121,5,8,3,4,NA,4,TRUE,3656.699999988079,4,4,4,4,FALSE,TRUE
1,7,learned,122,12,1,10,11,10,11,FALSE,2852.2000000476837,3,4,3,3,FALSE,FALSE
1,7,learned,123,3,6,2,5,NA,5,TRUE,4272.5,3,3,3,2,FALSE,TRUE
1,7,learned,124,11,8,9,13,9,9,TRUE,2945.699999988079,2,4,2,2,FALSE,FALSE
1,7,learned,125,2,5,3,4,NA,4,TRUE,4955.5,2,2,2,2,FALSE,TRUE
1,7,learned,126,12,2,10,11,10,11,FALSE,4846.599999964237,4,5,4,4,FALSE,FALSE
1,7,learned,127,4,8,2,3,2,3,FALSE,6464.199999988079,3,4,3,3,FALSE,FALSE
1,7,learned,128,2,10,1,3,1,1,TRUE,5856.700000047684,3,NA,3,3,TRUE,FALSE
1,7,learned,129,8,13,9,1,9,9,TRUE,7048.600000023842,3,NA,3,3,TRUE,FALSE
1,7,learned,130,4,7,5,6,NA,6,TRUE,3061.5,2,2,2,2,FALSE,TRUE
1,7,learned,131,2,6,4,1,4,4,TRUE,2779.600000023842,2,NA,2,2,TRUE,FALSE
1,7,learned,132,2,6,3,1,3,3,TRUE,2643.5,3,NA,3,2,TRUE,FALSE
1,7,learned,133,4,9,2,3,2,3,FALSE,15716.399999976158,4,5,4,4,FALSE,FALSE
1,7,learned,134,10,9,8,12,8,8,TRUE,3689.899999976158,2,3,2,2,FALSE,FALSE
1,7,learned,135,8,12,9,1,9,9,TRUE,3994.099999964237,3,NA,3,2,TRUE,FALSE
1,7,learned,136,12,1,10,13,10,10,TRUE,5848.899999976158,3,5,3,3,FALSE,FALSE
1,7,learned,137,4,1,2,5,2,2,TRUE,2884.300000011921,2,4,2,2,FALSE,FALSE
1,7,learned,138,5,6,4,7,NA,7,TRUE,3024.399999976158,2,2,2,2,FALSE,TRUE
1,7,learned,139,6,3,4,7,4,4,TRUE,1645.2999999523165,2,3,2,2,FALSE,FALSE
1,7,learned,140,6,2,4,7,4,4,TRUE,2202,2,4,2,2,FALSE,FALSE
1,7,learned,141,12,1,11,13,11,11,TRUE,5756,4,5,4,3,FALSE,FALSE
1,7,learned,142,3,9,2,4,2,4,FALSE,11227.5,4,5,4,4,FALSE,FALSE
1,7,learned,143,13,1,11,12,NA,11,TRUE,17317.400000035763,4,4,4,4,FALSE,TRUE
1,7,learned,144,4,8,2,5,2,2,TRUE,15395,3,5,3,3,FALSE,FALSE
1,7,learned,145,11,8,9,12,9,9,TRUE,5415.200000047684,2,3,2,2,FALSE,FALSE
1,7,learned,146,7,1,5,6,NA,5,TRUE,20355.89999997616,4,4,4,4,FALSE,TRUE
1,7,learned,147,4,10,2,3,2,3,FALSE,5513.600000023842,4,5,4,4,FALSE,FALSE
1,7,learned,148,2,7,3,1,3,3,TRUE,9950.5,3,NA,3,3,TRUE,FALSE
1,7,learned,149,2,12,1,3,1,1,TRUE,7031.100000023842,4,NA,4,4,TRUE,FALSE
1,7,learned,150,12,2,11,13,11,11,TRUE,6901.599999964237,5,6,5,4,FALSE,FALSE
1,7,learned,151,4,1,2,3,2,2,TRUE,2279.899999976158,2,3,2,2,FALSE,FALSE
1,7,learned,152,3,8,4,5,4,4,TRUE,9507.19999998808,4,5,4,3,FALSE,FALSE
1,7,learned,153,8,13,9,10,NA,9,TRUE,7434.199999988079,3,3,3,3,FALSE,TRUE
1,7,learned,154,3,10,4,5,4,4,TRUE,10094.80000001192,5,6,5,4,FALSE,FALSE
1,7,learned,155,4,10,2,6,2,2,TRUE,8578,4,8,4,4,FALSE,FALSE
1,7,learned,156,11,1,9,13,9,13,FALSE,5161.600000023842,3,5,3,3,FALSE,FALSE
1,7,learned,157,2,8,1,3,1,3,FALSE,20148.89999997616,2,NA,2,2,TRUE,FALSE
1,7,learned,158,3,6,4,2,4,4,TRUE,4336.200000047684,2,3,2,2,FALSE,FALSE
1,7,learned,159,4,9,2,5,2,2,TRUE,13061.30000001192,4,6,4,4,FALSE,FALSE
1,8,learned,1,12,2,10,13,10,10,TRUE,9891.5,4,6,4,4,FALSE,FALSE
1,8,learned,2,4,8,2,5,2,2,TRUE,20587.89999997616,3,5,3,3,FALSE,FALSE
1,8,learned,3,11,8,9,13,9,9,TRUE,10683.5,2,4,2,2,FALSE,FALSE
1,8,learned,4,11,2,9,12,9,9,TRUE,6459.300000011921,4,5,4,4,FALSE,FALSE
1,8,learned,5,4,7,5,6,NA,6,TRUE,4399.099999964237,2,2,2,2,FALSE,TRUE
1,8,learned,6,4,8,2,6,2,2,TRUE,4659.400000035763,3,7,3,3,FALSE,FALSE
1,8,learned,7,1,9,8,2,8,8,TRUE,4683.399999976158,2,NA,2,2,TRUE,FALSE
1,8,learned,8,5,2,4,7,4,4,TRUE,8259.600000023842,2,4,2,2,FALSE,FALSE
1,8,learned,9,9,2,8,11,8,8,TRUE,12139.600000023842,3,6,3,3,FALSE,FALSE
1,8,learned,10,13,1,11,12,NA,11,TRUE,13531.69999998808,4,4,4,4,FALSE,TRUE
1,8,learned,11,4,8,5,6,5,5,TRUE,15822,5,7,5,3,FALSE,FALSE
1,8,learned,12,12,8,10,13,10,10,TRUE,2268.399999976158,2,4,2,2,FALSE,FALSE
1,8,learned,13,12,9,10,13,NA,10,TRUE,23140.10000002384,3,3,3,2,FALSE,TRUE
1,8,learned,14,2,10,1,3,1,1,TRUE,7915.599999964237,3,NA,3,3,TRUE,FALSE
1,8,learned,15,4,10,3,6,3,3,TRUE,18619.5,5,8,5,4,FALSE,FALSE
1,8,learned,16,8,12,10,1,10,10,TRUE,7395.300000011921,2,NA,2,2,TRUE,FALSE
1,8,learned,17,12,2,10,11,10,10,TRUE,41123.59999996424,4,5,4,4,FALSE,FALSE
1,8,learned,18,10,3,8,12,8,12,FALSE,8459.599999964237,4,7,4,4,FALSE,FALSE
1,8,learned,19,5,1,4,7,4,4,TRUE,14799.69999998808,3,5,3,3,FALSE,FALSE
1,8,learned,20,6,5,4,7,NA,4,TRUE,5139.300000011921,2,2,2,2,FALSE,TRUE
1,8,learned,21,10,9,8,12,8,8,TRUE,5515.399999976158,2,3,2,2,FALSE,FALSE
1,8,learned,22,4,8,3,6,3,3,TRUE,24555.599999964237,4,7,4,3,FALSE,FALSE
1,8,learned,23,7,2,5,6,NA,5,TRUE,10363.399999976158,3,3,3,3,FALSE,TRUE
1,8,learned,24,3,8,2,5,2,2,TRUE,14883.600000023842,3,5,3,3,FALSE,FALSE
1,8,learned,25,8,5,1,10,1,10,FALSE,10531.69999998808,4,NA,4,4,TRUE,FALSE
1,8,learned,26,12,8,11,13,11,11,TRUE,4416.199999988079,3,4,3,2,FALSE,FALSE
1,8,learned,27,8,12,9,1,9,9,TRUE,14003.5,3,NA,3,2,TRUE,FALSE
1,8,learned,28,2,6,4,1,4,4,TRUE,13523.69999998808,2,NA,2,2,TRUE,FALSE
1,8,learned,29,3,6,4,2,4,4,TRUE,5283.5,2,3,2,2,FALSE,FALSE
1,8,learned,30,2,5,4,1,4,4,TRUE,2827.400000035763,2,NA,2,2,TRUE,FALSE
1,8,learned,31,11,10,12,13,12,12,TRUE,9491.400000035765,2,3,2,2,FALSE,FALSE
1,8,learned,32,11,1,12,13,12,12,TRUE,5691.399999976158,4,5,4,3,FALSE,FALSE
1,8,learned,33,4,1,3,6,3,3,TRUE,23603.60000002384,3,6,3,2,FALSE,FALSE
1,8,learned,34,12,2,11,13,11,11,TRUE,9859.599999964235,5,6,5,4,FALSE,FALSE
1,8,learned,35,1,7,2,8,2,8,FALSE,27115.69999998808,4,NA,4,4,TRUE,FALSE
1,8,learned,36,4,7,6,3,6,6,TRUE,5811.5,2,3,2,2,FALSE,FALSE
1,8,learned,37,11,2,12,13,12,12,TRUE,5928.5,5,6,5,4,FALSE,FALSE
1,8,learned,38,4,1,2,6,2,2,TRUE,4032,2,6,2,2,FALSE,FALSE
1,8,learned,39,3,9,4,5,4,5,FALSE,5107.300000011921,5,6,5,4,FALSE,FALSE
1,8,learned,40,3,10,2,5,2,2,TRUE,22285.900000035763,4,6,4,4,FALSE,FALSE
1,8,learned,41,8,3,1,9,1,1,TRUE,10907.599999964235,3,NA,3,3,TRUE,FALSE
1,8,learned,42,8,13,10,1,10,10,TRUE,9267.5,3,NA,3,3,TRUE,FALSE
1,8,learned,43,11,10,9,13,NA,9,TRUE,6059.300000011921,3,3,3,2,FALSE,TRUE
1,8,learned,44,2,11,1,3,1,3,FALSE,7827.699999988079,4,NA,4,4,TRUE,FALSE
1,8,learned,45,2,12,1,4,1,1,TRUE,12443.599999964235,4,NA,4,4,TRUE,FALSE
1,8,learned,46,8,11,9,1,9,9,TRUE,6143.300000011921,2,NA,2,2,TRUE,FALSE
1,8,learned,47,1,3,2,8,2,2,TRUE,23604.19999998808,2,NA,2,2,TRUE,FALSE
1,8,learned,48,10,13,12,8,12,12,TRUE,3283.5,2,4,2,2,FALSE,FALSE
1,8,learned,49,13,8,11,12,NA,11,TRUE,4131.600000023842,3,3,3,3,FALSE,TRUE
1,8,learned,50,7,4,5,6,NA,5,TRUE,5235.400000035763,2,2,2,2,FALSE,TRUE
1,8,learned,51,12,9,11,10,11,11,TRUE,6803.300000011921,2,3,2,2,FALSE,FALSE
1,8,learned,52,6,8,4,7,4,4,TRUE,21251.60000002384,4,6,4,4,FALSE,FALSE
1,8,learned,53,5,6,4,7,NA,7,TRUE,3035,2,2,2,2,FALSE,TRUE
1,8,learned,54,1,13,8,2,8,8,TRUE,13339.899999976158,4,NA,4,4,TRUE,FALSE
1,8,learned,55,4,8,3,5,3,5,FALSE,25151.60000002384,4,5,4,3,FALSE,FALSE
1,8,learned,56,3,9,2,4,2,4,FALSE,20291.69999998808,4,5,4,4,FALSE,FALSE
1,8,learned,57,11,1,9,13,9,9,TRUE,16235.80000001192,3,5,3,3,FALSE,FALSE
1,8,learned,58,4,1,3,5,3,3,TRUE,19595.599999964237,3,4,3,2,FALSE,FALSE
1,8,learned,59,1,4,2,8,2,2,TRUE,6923.5,2,NA,2,2,TRUE,FALSE
1,8,learned,60,8,4,1,10,1,1,TRUE,7979.300000011921,3,NA,3,3,TRUE,FALSE
1,8,learned,61,11,8,12,13,12,12,TRUE,4307.5,3,4,3,2,FALSE,FALSE
1,8,learned,62,13,9,11,12,11,11,TRUE,5111.600000023842,2,3,2,2,FALSE,FALSE
1,8,learned,63,10,11,12,8,12,12,TRUE,28227.5,2,3,2,2,FALSE,FALSE
1,8,learned,64,8,2,1,10,1,1,TRUE,1811.5,2,NA,2,2,TRUE,FALSE
1,8,learned,65,3,10,4,5,4,5,FALSE,29883.60000002384,5,6,5,4,FALSE,FALSE
1,8,learned,66,2,8,1,4,1,1,TRUE,2340.699999988079,2,NA,2,2,TRUE,FALSE
1,8,learned,67,8,6,1,10,1,10,FALSE,13075.900000035765,4,NA,4,4,TRUE,FALSE
1,8,learned,68,5,1,3,7,3,3,TRUE,17480.399999976158,3,5,3,3,FALSE,FALSE
1,8,learned,69,11,8,9,12,9,9,TRUE,6547.399999976158,2,3,2,2,FALSE,FALSE
1,8,learned,70,7,1,5,6,NA,5,TRUE,14747.599999964235,4,4,4,4,FALSE,TRUE
1,8,learned,71,4,10,2,3,2,2,TRUE,8707.699999988079,4,5,4,4,FALSE,FALSE
1,8,learned,72,12,1,11,13,11,11,TRUE,5499.399999976158,4,5,4,3,FALSE,FALSE
1,8,learned,73,2,8,1,3,1,1,TRUE,12651.5,2,NA,2,2,TRUE,FALSE
1,8,learned,74,6,3,4,7,4,4,TRUE,7963.300000011921,2,3,2,2,FALSE,FALSE
1,8,learned,75,8,2,1,9,1,1,TRUE,1747.399999976158,2,NA,2,2,TRUE,FALSE
1,8,learned,76,5,6,7,3,7,7,TRUE,6659.800000011921,2,3,2,2,FALSE,FALSE
1,8,learned,77,4,9,2,3,2,2,TRUE,14067.69999998808,4,5,4,4,FALSE,FALSE
1,8,learned,78,3,8,2,4,2,2,TRUE,3459.400000035763,3,4,3,3,FALSE,FALSE
1,8,learned,79,10,1,8,12,8,8,TRUE,2325.699999988079,2,5,2,2,FALSE,FALSE
1,8,learned,80,4,1,2,5,2,2,TRUE,2475.600000023842,2,4,2,2,FALSE,FALSE
1,8,learned,81,9,1,8,11,8,8,TRUE,1891.699999988079,2,5,2,2,FALSE,FALSE
1,8,learned,82,3,6,4,5,4,5,FALSE,2181.600000023842,2,3,2,2,FALSE,FALSE
1,8,learned,83,13,10,12,11,12,12,TRUE,4955.600000023842,2,3,2,2,FALSE,FALSE
1,8,learned,84,8,4,1,9,1,9,FALSE,10019.80000001192,3,NA,3,3,TRUE,FALSE
1,8,learned,85,12,8,10,11,10,10,TRUE,3755.5,2,3,2,2,FALSE,FALSE
1,8,learned,86,4,7,6,2,6,6,TRUE,2075.400000035763,2,4,2,2,FALSE,FALSE
1,8,learned,87,10,2,8,12,8,8,TRUE,2275.600000023842,3,6,3,3,FALSE,FALSE
1,8,learned,88,3,7,4,2,4,4,TRUE,5099.600000023842,3,4,3,2,FALSE,FALSE
1,8,learned,89,8,11,10,1,10,10,TRUE,7571.599999964237,3,NA,3,2,TRUE,FALSE
1,8,learned,90,12,1,10,11,10,10,TRUE,2811.300000011921,3,4,3,3,FALSE,FALSE
1,8,learned,91,4,10,2,6,2,2,TRUE,7427.5,4,8,4,4,FALSE,FALSE
1,8,learned,92,5,8,3,4,NA,4,TRUE,33916,4,4,4,4,FALSE,TRUE
1,8,learned,93,4,10,5,6,5,5,TRUE,6983.399999976158,6,8,6,4,FALSE,FALSE
1,8,learned,94,4,9,2,5,2,5,FALSE,8936.100000023842,4,6,4,4,FALSE,FALSE
1,8,learned,95,4,7,3,2,3,2,FALSE,5659.300000011921,3,4,3,2,FALSE,FALSE
1,8,learned,96,6,1,4,7,4,4,TRUE,11143.5,3,5,3,3,FALSE,FALSE
1,8,learned,97,9,12,11,8,11,11,TRUE,2459.300000011921,2,3,2,2,FALSE,FALSE
1,8,learned,98,8,6,1,9,1,9,FALSE,26291.69999998808,4,NA,4,4,TRUE,FALSE
1,8,learned,99,6,2,4,7,4,4,TRUE,7515.399999976158,2,4,2,2,FALSE,FALSE
1,8,learned,100,8,13,9,1,9,9,TRUE,10211.5,3,NA,3,3,TRUE,FALSE
1,8,learned,101,4,7,5,3,5,5,TRUE,4211.200000047684,2,3,2,2,FALSE,FALSE
1,8,learned,102,11,2,9,13,9,9,TRUE,6003.5,4,6,4,4,FALSE,FALSE
1,8,learned,103,2,10,1,4,1,1,TRUE,4907.300000011921,3,NA,3,3,TRUE,FALSE
1,8,learned,104,5,8,4,7,4,4,TRUE,7755.399999976158,4,6,4,4,FALSE,FALSE
1,8,learned,105,2,7,4,1,4,4,TRUE,9939.5,3,NA,3,3,TRUE,FALSE
1,8,learned,106,12,1,10,13,10,10,TRUE,4251.400000035763,3,5,3,3,FALSE,FALSE
1,8,learned,107,3,1,2,4,2,2,TRUE,4595.399999976158,2,3,2,2,FALSE,FALSE
1,8,learned,108,4,9,2,6,2,6,FALSE,7419.699999988079,4,8,4,4,FALSE,FALSE
1,8,learned,109,3,10,2,4,2,2,TRUE,11195.600000023842,4,5,4,4,FALSE,FALSE
1,8,learned,110,4,7,5,2,5,5,TRUE,3787.400000035763,2,4,2,2,FALSE,FALSE
1,8,learned,111,1,11,8,2,8,8,TRUE,11611.599999964235,3,NA,3,3,TRUE,FALSE
1,8,learned,112,2,12,1,3,1,3,FALSE,4667.399999976158,4,NA,4,4,TRUE,FALSE
1,8,learned,113,3,9,2,5,2,5,FALSE,5467.300000011921,4,6,4,4,FALSE,FALSE
1,8,learned,114,5,8,3,7,3,3,TRUE,12571.69999998808,4,6,4,4,FALSE,FALSE
1,8,learned,115,8,12,10,9,10,10,TRUE,3915.399999976158,2,3,2,2,FALSE,FALSE
1,8,learned,116,5,1,3,4,NA,4,TRUE,5979.400000035763,3,3,3,3,FALSE,TRUE
1,8,learned,117,4,9,5,6,5,5,TRUE,8907.599999964237,6,8,6,4,FALSE,FALSE
1,8,learned,118,2,7,3,1,3,3,TRUE,7759.300000011921,3,NA,3,3,TRUE,FALSE
1,8,learned,119,2,7,3,4,NA,4,TRUE,17411.69999998808,3,3,3,3,FALSE,TRUE
1,8,learned,120,4,10,2,5,2,2,TRUE,10643.5,4,6,4,4,FALSE,FALSE
1,8,learned,121,2,6,4,3,4,3,FALSE,7555.600000023842,2,3,2,2,FALSE,FALSE
1,8,learned,122,8,13,9,10,NA,10,TRUE,4100.200000047684,3,3,3,3,FALSE,TRUE
1,8,learned,123,2,11,1,4,1,4,FALSE,6499.300000011921,4,NA,4,4,TRUE,FALSE
1,8,learned,124,10,4,8,12,8,12,FALSE,8779.5,4,7,4,4,FALSE,FALSE
1,8,learned,125,12,9,11,13,11,11,TRUE,2427.400000035763,2,3,2,2,FALSE,FALSE
1,8,learned,126,3,6,2,5,NA,5,TRUE,2827.600000023842,3,3,3,2,FALSE,TRUE
1,8,learned,127,3,7,5,4,5,5,TRUE,2347.600000023842,2,3,2,2,FALSE,FALSE
1,8,learned,128,4,9,3,5,3,5,FALSE,3453.400000035763,5,6,5,4,FALSE,FALSE
1,8,learned,129,9,3,8,11,8,11,FALSE,9862,4,7,4,4,FALSE,FALSE
1,8,learned,130,2,5,3,4,NA,3,TRUE,3071.7999999523163,2,2,2,2,FALSE,TRUE
1,8,learned,131,1,10,8,2,8,8,TRUE,5155.600000023842,2,NA,2,2,TRUE,FALSE
1,8,learned,132,5,2,3,4,NA,4,TRUE,8235.5,2,2,2,2,FALSE,TRUE
1,8,learned,133,4,9,3,6,3,3,TRUE,4868.399999976158,5,8,5,4,FALSE,FALSE
1,8,learned,134,8,11,9,10,9,9,TRUE,2899.199999988079,2,3,2,2,FALSE,FALSE
1,8,learned,135,4,1,5,6,5,6,FALSE,11019.600000023842,4,6,4,2,FALSE,FALSE
1,8,learned,136,3,1,4,5,4,4,TRUE,6155.5,3,4,3,2,FALSE,FALSE
1,8,learned,137,5,6,4,3,4,3,FALSE,7699.599999964237,2,3,2,2,FALSE,FALSE
1,8,learned,138,9,10,8,11,8,8,TRUE,10003.69999998808,2,3,2,2,FALSE,FALSE
1,8,learned,139,2,9,1,4,1,1,TRUE,1899.300000011921,3,NA,3,3,TRUE,FALSE
1,8,learned,140,2,6,3,1,3,3,TRUE,10531.80000001192,3,NA,3,2,TRUE,FALSE
1,8,learned,141,3,8,4,5,4,5,FALSE,6635.399999976158,4,5,4,3,FALSE,FALSE
1,8,learned,142,11,10,12,9,12,12,TRUE,2603.399999976158,2,3,2,2,FALSE,FALSE
1,8,learned,143,4,10,3,5,3,3,TRUE,3427.399999976158,5,6,5,4,FALSE,FALSE
1,8,learned,144,8,3,1,10,1,10,FALSE,4755.399999976158,3,NA,3,3,TRUE,FALSE
1,8,learned,145,5,2,3,7,3,7,FALSE,5651.399999976158,2,4,2,2,FALSE,FALSE
1,8,learned,146,1,12,8,2,8,8,TRUE,6323.399999976158,3,NA,3,3,TRUE,FALSE
1,8,learned,147,7,3,5,6,5,5,TRUE,3683.300000011921,2,3,2,2,FALSE,FALSE
1,8,learned,148,2,5,3,1,3,3,TRUE,2459.5,2,NA,2,2,TRUE,FALSE
1,8,learned,149,2,9,1,3,1,1,TRUE,9299.900000035765,3,NA,3,3,TRUE,FALSE
1,8,learned,150,4,1,2,3,2,2,TRUE,2299.399999976158,2,3,2,2,FALSE,FALSE
1,8,learned,151,9,4,8,11,8,11,FALSE,9739.5,4,7,4,4,FALSE,FALSE
1,8,learned,152,1,5,2,8,2,8,FALSE,6835.5,3,NA,3,3,TRUE,FALSE
1,8,learned,153,4,8,2,3,2,2,TRUE,3787.5,3,4,3,3,FALSE,FALSE
1,8,learned,154,1,6,2,8,2,2,TRUE,4315.200000047684,3,NA,3,3,TRUE,FALSE
1,8,learned,155,3,7,5,2,5,5,TRUE,1735.399999976158,2,4,2,2,FALSE,FALSE
1,8,learned,156,11,1,9,12,9,9,TRUE,5595.600000023842,3,4,3,3,FALSE,FALSE
1,8,learned,157,8,5,1,9,1,9,FALSE,4979.600000023842,4,NA,4,4,TRUE,FALSE
1,8,learned,158,9,13,11,8,11,11,TRUE,2469,2,4,2,2,FALSE,FALSE
1,8,learned,159,3,1,2,5,2,2,TRUE,4099.699999988079,2,4,2,2,FALSE,FALSE
1,9,learned,1,1,11,8,2,8,2,FALSE,5689.9000000059605,3,NA,3,3,TRUE,FALSE
1,9,learned,2,2,8,1,4,1,1,TRUE,2218.4000000059605,2,NA,2,2,TRUE,FALSE
1,9,learned,3,2,11,1,3,1,1,TRUE,1746.300000011921,4,NA,4,4,TRUE,FALSE
1,9,learned,4,2,7,3,4,NA,3,TRUE,2154.4000000059605,3,3,3,3,FALSE,TRUE
1,9,learned,5,1,13,8,2,8,8,TRUE,20206.5,4,NA,4,4,TRUE,FALSE
1,9,learned,6,4,1,3,5,3,3,TRUE,1846.7999999821184,3,4,3,2,FALSE,FALSE
1,9,learned,7,3,1,2,5,2,5,FALSE,2284.0999999940395,2,4,2,2,FALSE,FALSE
1,9,learned,8,3,8,2,5,2,5,FALSE,2239,3,5,3,3,FALSE,FALSE
1,9,learned,9,12,2,10,11,10,10,TRUE,3419.300000011921,4,5,4,4,FALSE,FALSE
1,9,learned,10,5,1,4,7,4,7,FALSE,452.5,3,5,3,3,FALSE,FALSE
1,9,learned,11,12,1,11,13,11,11,TRUE,554.3000000119209,4,5,4,3,FALSE,FALSE
1,9,learned,12,3,7,4,2,4,4,TRUE,2458.5,3,4,3,2,FALSE,FALSE
1,9,learned,13,4,9,2,6,2,6,FALSE,810.0999999940395,4,8,4,4,FALSE,FALSE
1,9,learned,14,5,1,3,7,3,3,TRUE,2186.4000000059605,3,5,3,3,FALSE,FALSE
1,9,learned,15,2,7,3,1,3,1,FALSE,401.89999997615814,3,NA,3,3,TRUE,FALSE
1,9,learned,16,9,3,8,11,8,11,FALSE,706.1999999880791,4,7,4,4,FALSE,FALSE
1,9,learned,17,3,8,4,5,4,4,TRUE,2402.4000000059605,4,5,4,3,FALSE,FALSE
1,9,learned,18,4,9,2,5,2,5,FALSE,602.3000000119209,4,6,4,4,FALSE,FALSE
1,9,learned,19,4,10,3,6,3,6,FALSE,2642.5,5,8,5,4,FALSE,FALSE
1,9,learned,20,7,4,5,6,NA,5,TRUE,3530.4000000059605,2,2,2,2,FALSE,TRUE
1,9,learned,21,12,8,11,13,11,11,TRUE,1474.2000000178814,3,4,3,2,FALSE,FALSE
1,9,learned,22,11,1,12,13,12,13,FALSE,1570.4000000059605,4,5,4,3,FALSE,FALSE
1,9,learned,23,3,8,2,4,2,2,TRUE,1418.5,3,4,3,3,FALSE,FALSE
1,9,learned,24,2,12,1,4,1,4,FALSE,994.4000000059604,4,NA,4,4,TRUE,FALSE
1,9,learned,25,9,10,8,11,8,11,FALSE,1002.600000023842,2,3,2,2,FALSE,FALSE
1,9,learned,26,11,10,12,9,12,9,FALSE,1106.300000011921,2,3,2,2,FALSE,FALSE
1,9,learned,27,1,6,2,8,2,2,TRUE,290.40000000596046,3,NA,3,3,TRUE,FALSE
1,9,learned,28,3,10,2,4,2,4,FALSE,226.4000000059605,4,5,4,4,FALSE,FALSE
1,9,learned,29,8,5,1,10,1,1,TRUE,222.5,4,NA,4,4,TRUE,FALSE
1,9,learned,30,2,9,1,4,1,1,TRUE,410.40000000596046,3,NA,3,3,TRUE,FALSE
1,9,learned,31,4,9,5,6,5,5,TRUE,500.40000000596046,6,8,6,4,FALSE,FALSE
1,9,learned,32,3,6,4,5,4,4,TRUE,378.300000011921,2,3,2,2,FALSE,FALSE
1,9,learned,33,4,9,3,6,3,6,FALSE,434.300000011921,5,8,5,4,FALSE,FALSE
1,9,learned,34,6,1,4,7,4,7,FALSE,319.10000002384186,3,5,3,3,FALSE,FALSE
1,9,learned,35,7,1,5,6,NA,6,TRUE,574.4000000059605,4,4,4,4,FALSE,TRUE
1,9,learned,36,5,2,4,7,4,7,FALSE,452.60000002384186,2,4,2,2,FALSE,FALSE
1,9,learned,37,5,2,3,7,3,7,FALSE,914.4000000059604,2,4,2,2,FALSE,FALSE
1,9,learned,38,3,9,2,5,2,2,TRUE,1130.2000000178814,4,6,4,4,FALSE,FALSE
1,9,learned,39,4,10,2,5,2,2,TRUE,1290.5,4,6,4,4,FALSE,FALSE
1,9,learned,40,10,9,8,12,8,12,FALSE,1274.300000011921,2,3,2,2,FALSE,FALSE
1,9,learned,41,4,8,3,5,3,5,FALSE,898.2000000178814,4,5,4,3,FALSE,FALSE
1,9,learned,42,2,6,4,1,4,4,TRUE,834.3000000119209,2,NA,2,2,TRUE,FALSE
1,9,learned,43,6,2,4,7,4,7,FALSE,874.3000000119209,2,4,2,2,FALSE,FALSE
1,9,learned,44,13,8,11,12,NA,12,TRUE,466.40000000596046,3,3,3,3,FALSE,TRUE
1,9,learned,45,2,6,4,3,4,4,TRUE,1002.3000000119208,2,3,2,2,FALSE,FALSE
1,9,learned,46,4,1,2,5,2,2,TRUE,1110.4000000059605,2,4,2,2,FALSE,FALSE
1,9,learned,47,1,10,8,2,8,2,FALSE,1946.4000000059605,2,NA,2,2,TRUE,FALSE
1,9,learned,48,8,6,1,10,1,1,TRUE,1082.300000011921,4,NA,4,4,TRUE,FALSE
1,9,learned,49,10,4,8,12,8,8,TRUE,1298.199999988079,4,7,4,4,FALSE,FALSE
1,9,learned,50,4,10,5,6,5,5,TRUE,1010.4000000059604,6,8,6,4,FALSE,FALSE
1,9,learned,51,8,12,10,9,10,9,FALSE,442.2000000178814,2,3,2,2,FALSE,FALSE
1,9,learned,52,11,2,12,13,12,12,TRUE,2106.4000000059605,5,6,5,4,FALSE,FALSE
1,9,learned,53,3,7,5,2,5,2,FALSE,910,2,4,2,2,FALSE,FALSE
1,9,learned,54,4,10,3,5,3,3,TRUE,1146.4000000059605,5,6,5,4,FALSE,FALSE
1,9,learned,55,4,7,6,2,6,6,TRUE,666.6000000238419,2,4,2,2,FALSE,FALSE
1,9,learned,56,2,10,1,3,1,3,FALSE,490.40000000596046,3,NA,3,3,TRUE,FALSE
1,9,learned,57,5,6,4,7,NA,7,TRUE,602.4000000059605,2,2,2,2,FALSE,TRUE
1,9,learned,58,11,10,9,13,NA,9,TRUE,506.300000011921,3,3,3,2,FALSE,TRUE
1,9,learned,59,2,12,1,3,1,1,TRUE,602.4000000059605,4,NA,4,4,TRUE,FALSE
1,9,learned,60,4,7,6,3,6,3,FALSE,466.2000000178814,2,3,2,2,FALSE,FALSE
1,9,learned,61,8,2,1,9,1,9,FALSE,587.5999999940395,2,NA,2,2,TRUE,FALSE
1,9,learned,62,1,3,2,8,2,8,FALSE,490.40000000596046,2,NA,2,2,TRUE,FALSE
1,9,learned,63,13,10,12,11,12,11,FALSE,1178.300000011921,2,3,2,2,FALSE,FALSE
1,9,learned,64,8,12,10,1,10,10,TRUE,988.9000000059604,2,NA,2,2,TRUE,FALSE
1,9,learned,65,4,8,2,6,2,6,FALSE,530.3000000119209,3,7,3,3,FALSE,FALSE
1,9,learned,66,13,9,11,12,11,12,FALSE,1266.5,2,3,2,2,FALSE,FALSE
1,9,learned,67,8,6,1,9,1,9,FALSE,826.4000000059605,4,NA,4,4,TRUE,FALSE
1,9,learned,68,5,8,3,4,NA,3,TRUE,794.4000000059605,4,4,4,4,FALSE,TRUE
1,9,learned,69,10,2,8,12,8,8,TRUE,1130.300000011921,3,6,3,3,FALSE,FALSE
1,9,learned,70,10,11,12,8,12,8,FALSE,1426.4000000059605,2,3,2,2,FALSE,FALSE
1,9,learned,71,8,3,1,9,1,9,FALSE,706.4000000059605,3,NA,3,3,TRUE,FALSE
1,9,learned,72,4,7,5,6,NA,6,TRUE,1022.3000000119208,2,2,2,2,FALSE,TRUE
1,9,learned,73,2,7,4,1,4,4,TRUE,698.3000000119209,3,NA,3,3,TRUE,FALSE
1,9,learned,74,8,3,1,10,1,10,FALSE,642.4000000059605,3,NA,3,3,TRUE,FALSE
1,9,learned,75,4,9,2,3,2,2,TRUE,1442.300000011921,4,5,4,4,FALSE,FALSE
1,9,learned,76,9,12,11,8,11,8,FALSE,1202.4000000059605,2,3,2,2,FALSE,FALSE
1,9,learned,77,3,1,4,5,4,4,TRUE,450.40000000596046,3,4,3,2,FALSE,FALSE
1,9,learned,78,3,1,2,4,2,2,TRUE,778.2000000178814,2,3,2,2,FALSE,FALSE
1,9,learned,79,11,2,9,13,9,9,TRUE,342.30000001192093,4,6,4,4,FALSE,FALSE
1,9,learned,80,2,6,3,1,3,1,FALSE,739.1999999880791,3,NA,3,2,TRUE,FALSE
1,9,learned,81,12,9,11,13,11,11,TRUE,726.2000000178814,2,3,2,2,FALSE,FALSE
1,9,learned,82,8,13,9,1,9,1,FALSE,1186.4000000059605,3,NA,3,3,TRUE,FALSE
1,9,learned,83,4,7,5,3,5,3,FALSE,474.5,2,3,2,2,FALSE,FALSE
1,9,learned,84,4,7,3,2,3,3,TRUE,2094.4000000059605,3,4,3,2,FALSE,FALSE
1,9,learned,85,9,4,8,11,8,8,TRUE,994.6999999880792,4,7,4,4,FALSE,FALSE
1,9,learned,86,10,1,8,12,8,12,FALSE,586.3000000119209,2,5,2,2,FALSE,FALSE
1,9,learned,87,2,9,1,3,1,1,TRUE,1242.5999999940395,3,NA,3,3,TRUE,FALSE
1,9,learned,88,11,2,9,12,9,9,TRUE,1618.4000000059605,4,5,4,4,FALSE,FALSE
1,9,learned,89,1,7,2,8,2,8,FALSE,958.4000000059604,4,NA,4,4,TRUE,FALSE
1,9,learned,90,5,8,3,7,3,7,FALSE,650.3000000119209,4,6,4,4,FALSE,FALSE
1,9,learned,91,8,11,9,10,9,9,TRUE,746,2,3,2,2,FALSE,FALSE
1,9,learned,92,9,2,8,11,8,11,FALSE,542.1999999880791,3,6,3,3,FALSE,FALSE
1,9,learned,93,5,2,3,4,NA,3,TRUE,533.3000000119209,2,2,2,2,FALSE,TRUE
1,9,learned,94,6,5,4,7,NA,4,TRUE,922.3000000119208,2,2,2,2,FALSE,TRUE
1,9,learned,95,12,8,10,13,10,13,FALSE,1034.4000000059605,2,4,2,2,FALSE,FALSE
1,9,learned,96,8,13,10,1,10,10,TRUE,942.4000000059604,3,NA,3,3,TRUE,FALSE
1,9,learned,97,11,8,9,12,9,12,FALSE,866.3000000119209,2,3,2,2,FALSE,FALSE
1,9,learned,98,4,8,3,6,3,6,FALSE,1170.5,4,7,4,3,FALSE,FALSE
1,9,learned,99,3,10,2,5,2,2,TRUE,898.3000000119209,4,6,4,4,FALSE,FALSE
1,9,learned,100,3,6,4,2,4,4,TRUE,1090.300000011921,2,3,2,2,FALSE,FALSE
1,9,learned,101,8,11,9,1,9,1,FALSE,682.4000000059605,2,NA,2,2,TRUE,FALSE
1,9,learned,102,4,8,2,3,2,2,TRUE,1066.5,3,4,3,3,FALSE,FALSE
1,9,learned,103,7,2,5,6,NA,6,TRUE,686.5,3,3,3,3,FALSE,TRUE
1,9,learned,104,4,1,2,3,2,2,TRUE,930.4000000059604,2,3,2,2,FALSE,FALSE
1,9,learned,105,12,9,10,13,NA,10,TRUE,332.2000000178814,3,3,3,2,FALSE,TRUE
1,9,learned,106,5,8,4,7,4,7,FALSE,594.3000000119209,4,6,4,4,FALSE,FALSE
1,9,learned,107,9,13,11,8,11,11,TRUE,732.1000000238419,2,4,2,2,FALSE,FALSE
1,9,learned,108,8,12,9,1,9,9,TRUE,1978.300000011921,3,NA,3,2,TRUE,FALSE
1,9,learned,109,3,9,2,4,2,2,TRUE,1140.5,4,5,4,4,FALSE,FALSE
1,9,learned,110,4,8,2,5,2,2,TRUE,986.4000000059604,3,5,3,3,FALSE,FALSE
1,9,learned,111,12,9,11,10,11,10,FALSE,794.4000000059605,2,3,2,2,FALSE,FALSE
1,9,learned,112,2,5,3,4,NA,3,TRUE,722.3000000119209,2,2,2,2,FALSE,TRUE
1,9,learned,113,3,6,2,5,NA,2,TRUE,1090.2000000178814,3,3,3,2,FALSE,TRUE
1,9,learned,114,8,5,1,9,1,9,FALSE,1066.199999988079,4,NA,4,4,TRUE,FALSE
1,9,learned,115,4,7,5,2,5,5,TRUE,493.300000011921,2,4,2,2,FALSE,FALSE
1,9,learned,116,11,1,9,12,9,12,FALSE,1082.5,3,4,3,3,FALSE,FALSE
1,9,learned,117,12,2,10,13,10,10,TRUE,798.7000000178814,4,6,4,4,FALSE,FALSE
1,9,learned,118,2,5,3,1,3,3,TRUE,770.5,2,NA,2,2,TRUE,FALSE
1,9,learned,119,4,9,3,5,3,5,FALSE,1066.199999988079,5,6,5,4,FALSE,FALSE
1,9,learned,120,2,8,1,3,1,1,TRUE,634.2000000178814,2,NA,2,2,TRUE,FALSE
1,9,learned,121,3,10,4,5,4,5,FALSE,579.2000000178814,5,6,5,4,FALSE,FALSE
1,9,learned,122,12,1,10,11,10,10,TRUE,1378.4000000059605,3,4,3,3,FALSE,FALSE
1,9,learned,123,11,8,12,13,12,13,FALSE,1070.5,3,4,3,2,FALSE,FALSE
1,9,learned,124,2,10,1,4,1,1,TRUE,618.8000000119209,3,NA,3,3,TRUE,FALSE
1,9,learned,125,10,3,8,12,8,12,FALSE,610.2000000178814,4,7,4,4,FALSE,FALSE
1,9,learned,126,10,13,12,8,12,8,FALSE,418.199999988079,2,4,2,2,FALSE,FALSE
1,9,learned,127,6,8,4,7,4,4,TRUE,914.1999999880792,4,6,4,4,FALSE,FALSE
1,9,learned,128,11,10,12,13,12,13,FALSE,434.300000011921,2,3,2,2,FALSE,FALSE
1,9,learned,129,8,2,1,10,1,10,FALSE,474.300000011921,2,NA,2,2,TRUE,FALSE
1,9,learned,130,4,8,5,6,5,6,FALSE,406.2000000178814,5,7,5,3,FALSE,FALSE
1,9,learned,131,12,2,11,13,11,11,TRUE,402.40000000596046,5,6,5,4,FALSE,FALSE
1,9,learned,132,11,8,9,13,9,13,FALSE,378.300000011921,2,4,2,2,FALSE,FALSE
1,9,learned,133,4,10,2,6,2,6,FALSE,274.2000000178814,4,8,4,4,FALSE,FALSE
1,9,learned,134,13,1,11,12,NA,11,TRUE,348.7000000178814,4,4,4,4,FALSE,TRUE
1,9,learned,135,3,9,4,5,4,4,TRUE,322.30000001192093,5,6,5,4,FALSE,FALSE
1,9,learned,136,8,13,9,10,NA,9,TRUE,343.80000001192093,3,3,3,3,FALSE,TRUE
1,9,learned,137,5,6,4,3,4,4,TRUE,362.300000011921,2,3,2,2,FALSE,FALSE
1,9,learned,138,8,4,1,10,1,1,TRUE,398.300000011921,3,NA,3,3,TRUE,FALSE
1,9,learned,139,9,1,8,11,8,8,TRUE,370.40000000596046,2,5,2,2,FALSE,FALSE
1,9,learned,140,4,10,2,3,2,2,TRUE,485.10000002384186,4,5,4,4,FALSE,FALSE
1,9,learned,141,8,4,1,9,1,1,TRUE,350.60000002384186,3,NA,3,3,TRUE,FALSE
1,9,learned,142,12,8,10,11,10,11,FALSE,532.2000000178814,2,3,2,2,FALSE,FALSE
1,9,learned,143,1,4,2,8,2,8,FALSE,194.4000000059605,2,NA,2,2,TRUE,FALSE
1,9,learned,144,1,9,8,2,8,8,TRUE,306.30000001192093,2,NA,2,2,TRUE,FALSE
1,9,learned,145,8,11,10,1,10,10,TRUE,554.4000000059605,3,NA,3,2,TRUE,FALSE
1,9,learned,146,4,1,2,6,2,6,FALSE,298.40000000596046,2,6,2,2,FALSE,FALSE
1,9,learned,147,5,6,7,3,7,7,TRUE,410.7000000178814,2,3,2,2,FALSE,FALSE
1,9,learned,148,7,3,5,6,5,6,FALSE,722.3000000119209,2,3,2,2,FALSE,FALSE
1,9,learned,149,2,5,4,1,4,1,FALSE,530.3000000119209,2,NA,2,2,TRUE,FALSE
1,9,learned,150,1,12,8,2,8,8,TRUE,1698.4000000059605,3,NA,3,3,TRUE,FALSE
1,9,learned,151,4,1,3,6,3,6,FALSE,2109.9000000059605,3,6,3,2,FALSE,FALSE
1,9,learned,152,2,11,1,4,1,4,FALSE,642.5,4,NA,4,4,TRUE,FALSE
1,9,learned,153,12,1,10,13,10,10,TRUE,914.2000000178814,3,5,3,3,FALSE,FALSE
