measurement_id,sub_id,network,trial,startpoint_id,endpoint_id,opt1_id,opt2_id,correct_choice,sub_choice,correct,rt,dist_opt1,dist_opt2,shortest_path_given_opts,shortest_path_given_start_end,one_impossible_option,two_correct_options
1,1,learned,1,6,1,4,7,4,7,FALSE,6941.104999976233,3,5,3,3,FALSE,FALSE
1,1,learned,2,4,9,2,3,2,2,TRUE,3684.2299999846146,4,5,4,4,FALSE,FALSE
1,1,learned,3,9,13,11,8,11,8,FALSE,3250.3900000010617,2,4,2,2,FALSE,FALSE
1,1,learned,4,4,1,2,3,2,2,TRUE,3297.5600000061095,2,3,2,2,FALSE,FALSE
1,1,learned,5,12,1,11,13,11,11,TRUE,2448.2900000000373,4,5,4,3,FALSE,FALSE
1,1,learned,6,10,1,8,12,8,8,TRUE,2269.384999992326,2,5,2,2,FALSE,FALSE
1,1,learned,7,10,13,12,8,12,12,TRUE,2722.899999992922,2,4,2,2,FALSE,FALSE
1,1,learned,8,10,2,8,12,8,8,TRUE,3086.089999997057,3,6,3,3,FALSE,FALSE
1,1,learned,9,4,7,3,2,3,2,FALSE,3035.2800000114366,3,4,3,2,FALSE,FALSE
1,1,learned,10,2,11,1,4,1,4,FALSE,3252.9950000173412,4,NA,4,4,TRUE,FALSE
1,1,learned,11,4,9,5,6,5,5,TRUE,1276.8799999901094,6,8,6,4,FALSE,FALSE
1,1,learned,12,4,1,2,6,2,6,FALSE,2821.685000002384,2,6,2,2,FALSE,FALSE
1,1,learned,13,3,8,2,5,2,5,FALSE,2368.859999988228,3,5,3,3,FALSE,FALSE
1,1,learned,14,12,1,10,11,10,10,TRUE,1810.105000011623,3,4,3,3,FALSE,FALSE
1,1,learned,15,4,7,5,3,5,5,TRUE,2270.9299999987707,2,3,2,2,FALSE,FALSE
1,1,learned,16,12,2,10,11,10,11,FALSE,1957.3650000095367,4,5,4,4,FALSE,FALSE
1,1,learned,17,3,7,5,2,5,2,FALSE,3173.949999996926,2,4,2,2,FALSE,FALSE
1,1,learned,18,2,10,1,3,1,3,FALSE,1649.380000016652,3,NA,3,3,TRUE,FALSE
1,1,learned,19,4,9,3,5,3,3,TRUE,1321.239999989979,5,6,5,4,FALSE,FALSE
1,1,learned,20,4,7,5,2,5,2,FALSE,2651.4749999917112,2,4,2,2,FALSE,FALSE
1,1,learned,21,2,6,3,1,3,1,FALSE,2002.210000006482,3,NA,3,2,TRUE,FALSE
1,1,learned,22,7,1,5,6,NA,6,TRUE,3122.1200000140816,4,4,4,4,FALSE,TRUE
1,1,learned,23,1,6,2,8,2,2,TRUE,4652.020000008866,3,NA,3,3,TRUE,FALSE
1,1,learned,24,3,1,4,5,4,4,TRUE,2480.27500000922,3,4,3,2,FALSE,FALSE
1,1,learned,25,12,8,10,11,10,11,FALSE,2593.09000000963,2,3,2,2,FALSE,FALSE
1,1,learned,26,5,2,3,7,3,3,TRUE,2874.1299999817275,2,4,2,2,FALSE,FALSE
1,1,learned,27,11,2,9,12,9,9,TRUE,3468.670000001788,4,5,4,4,FALSE,FALSE
1,1,learned,28,12,2,11,13,11,13,FALSE,2729.7599999876693,5,6,5,4,FALSE,FALSE
1,1,learned,29,4,8,3,5,3,3,TRUE,2266.009999992326,4,5,4,3,FALSE,FALSE
1,1,learned,30,3,1,2,4,2,2,TRUE,2409.914999996312,2,3,2,2,FALSE,FALSE
1,1,learned,31,1,12,8,2,8,8,TRUE,6885.050000011921,3,NA,3,3,TRUE,FALSE
1,1,learned,32,8,6,1,9,1,9,FALSE,1673.2249999763444,4,NA,4,4,TRUE,FALSE
1,1,learned,33,11,2,9,13,9,13,FALSE,2208.42500001844,4,6,4,4,FALSE,FALSE
1,1,learned,34,11,10,12,9,12,9,FALSE,1718.859999993816,2,3,2,2,FALSE,FALSE
1,1,learned,35,4,8,5,6,5,6,FALSE,2773.9850000068545,5,7,5,3,FALSE,FALSE
1,1,learned,36,10,9,8,12,8,8,TRUE,1787.8150000176392,2,3,2,2,FALSE,FALSE
1,1,learned,37,4,1,3,5,3,3,TRUE,346.8799999970943,3,4,3,2,FALSE,FALSE
1,1,learned,38,3,9,2,5,2,2,TRUE,294.86999998334795,4,6,4,4,FALSE,FALSE
1,1,learned,39,8,13,9,1,9,1,FALSE,401.4499999759719,3,NA,3,3,TRUE,FALSE
1,1,learned,40,9,3,8,11,8,11,FALSE,346.0349999954924,4,7,4,4,FALSE,FALSE
1,1,learned,41,10,3,8,12,8,8,TRUE,689.8099999818951,4,7,4,4,FALSE,FALSE
1,1,learned,42,9,1,8,11,8,11,FALSE,2690.0999999777414,2,5,2,2,FALSE,FALSE
1,1,learned,43,8,5,1,9,1,1,TRUE,1399.8000000137836,4,NA,4,4,TRUE,FALSE
1,1,learned,44,12,8,11,13,11,13,FALSE,4426.394999987911,3,4,3,2,FALSE,FALSE
1,1,learned,45,4,10,2,3,2,3,FALSE,2220.939999999013,4,5,4,4,FALSE,FALSE
1,1,learned,46,3,6,4,5,4,4,TRUE,1373.5800000140443,2,3,2,2,FALSE,FALSE
1,1,learned,47,10,4,8,12,8,8,TRUE,1173.0600000009872,4,7,4,4,FALSE,FALSE
1,1,learned,48,12,9,11,10,11,10,FALSE,1585.2650000015274,2,3,2,2,FALSE,FALSE
1,1,learned,49,3,7,4,2,4,4,TRUE,1223.3300000079907,3,4,3,2,FALSE,FALSE
1,1,learned,50,5,8,3,4,NA,3,TRUE,1356.9199999906125,4,4,4,4,FALSE,TRUE
1,1,learned,51,8,11,9,10,9,10,FALSE,1275.839999987278,2,3,2,2,FALSE,FALSE
1,1,learned,52,8,3,1,10,1,1,TRUE,964.0099999960512,3,NA,3,3,TRUE,FALSE
1,1,learned,53,8,11,10,1,10,10,TRUE,1518.935000000056,3,NA,3,2,TRUE,FALSE
1,1,learned,54,1,5,2,8,2,2,TRUE,869.6150000030175,3,NA,3,3,TRUE,FALSE
1,1,learned,55,1,10,8,2,8,8,TRUE,787.0650000115857,2,NA,2,2,TRUE,FALSE
1,1,learned,56,11,1,9,13,9,9,TRUE,406.20500000659376,3,5,3,3,FALSE,FALSE
1,1,learned,57,2,9,1,3,1,3,FALSE,1671.0000000018626,3,NA,3,3,TRUE,FALSE
1,1,learned,58,4,7,6,3,6,6,TRUE,2656.0999999926426,2,3,2,2,FALSE,FALSE
1,1,learned,59,2,7,3,1,3,3,TRUE,885.9799999915995,3,NA,3,3,TRUE,FALSE
1,1,learned,60,4,1,5,6,5,5,TRUE,738.600000011269,4,6,4,2,FALSE,FALSE
1,1,learned,61,11,10,12,13,12,13,FALSE,948.5449999915436,2,3,2,2,FALSE,FALSE
1,1,learned,62,6,8,4,7,4,7,FALSE,252.09000002406535,4,6,4,4,FALSE,FALSE
1,1,learned,63,4,1,2,5,2,5,FALSE,294.91999998595566,2,4,2,2,FALSE,FALSE
1,1,learned,64,11,8,9,12,9,12,FALSE,1998.129999992903,2,3,2,2,FALSE,FALSE
1,1,learned,65,8,4,1,9,1,9,FALSE,1035.9699999969453,3,NA,3,3,TRUE,FALSE
1,1,learned,66,8,12,10,9,10,10,TRUE,1635.6549999909475,2,3,2,2,FALSE,FALSE
1,1,learned,67,7,4,5,6,NA,6,TRUE,1675.744999986142,2,2,2,2,FALSE,TRUE
1,1,learned,68,12,1,10,13,10,10,TRUE,1433.684999995865,3,5,3,3,FALSE,FALSE
1,1,learned,69,7,3,5,6,5,5,TRUE,1891.149999981746,2,3,2,2,FALSE,FALSE
1,1,learned,70,11,1,12,13,12,12,TRUE,1369.799999985844,4,5,4,3,FALSE,FALSE
1,1,learned,71,2,5,3,4,NA,3,TRUE,288.1200000117533,2,2,2,2,FALSE,TRUE
1,1,learned,72,7,2,5,6,NA,6,TRUE,417.56999999051914,3,3,3,3,FALSE,TRUE
1,1,learned,73,2,9,1,4,1,4,FALSE,229.2900000177324,3,NA,3,3,TRUE,FALSE
1,1,learned,74,2,8,1,3,1,3,FALSE,377.1149999811314,2,NA,2,2,TRUE,FALSE
1,1,learned,75,13,9,11,12,11,12,FALSE,815.0649999734014,2,3,2,2,FALSE,FALSE
1,1,learned,76,8,5,1,10,1,10,FALSE,481.0299999951385,4,NA,4,4,TRUE,FALSE
1,1,learned,77,2,11,1,3,1,1,TRUE,270.66500001819804,4,NA,4,4,TRUE,FALSE
1,1,learned,78,8,13,10,1,10,1,FALSE,302.70500000892207,3,NA,3,3,TRUE,FALSE
1,1,learned,79,1,7,2,8,2,2,TRUE,360.0200000219047,4,NA,4,4,TRUE,FALSE
1,1,learned,80,4,8,2,6,2,6,FALSE,360.0299999816343,3,7,3,3,FALSE,FALSE
1,1,learned,81,8,4,1,10,1,1,TRUE,413.53499999968335,3,NA,3,3,TRUE,FALSE
1,1,learned,82,1,11,8,2,8,8,TRUE,272.8949999730103,3,NA,3,3,TRUE,FALSE
1,1,learned,83,2,8,1,4,1,4,FALSE,2050.099999993108,2,NA,2,2,TRUE,FALSE
1,1,learned,84,8,12,9,1,9,1,FALSE,2390.8250000094995,3,NA,3,2,TRUE,FALSE
1,1,learned,85,12,9,10,13,NA,13,TRUE,1358.7849999889731,3,3,3,2,FALSE,TRUE
1,1,learned,86,4,10,3,5,3,3,TRUE,2607.4249999946915,5,6,5,4,FALSE,FALSE
1,1,learned,87,10,11,12,8,12,8,FALSE,2184.9350000265986,2,3,2,2,FALSE,FALSE
1,1,learned,88,9,12,11,8,11,11,TRUE,1300.615000014659,2,3,2,2,FALSE,FALSE
1,1,learned,89,4,8,2,5,2,2,TRUE,2076.1099999947473,3,5,3,3,FALSE,FALSE
1,1,learned,90,4,10,2,6,2,2,TRUE,1574.7299999929965,4,8,4,4,FALSE,FALSE
1,1,learned,91,4,9,3,6,3,3,TRUE,2668.344999983441,5,8,5,4,FALSE,FALSE
1,1,learned,92,3,8,4,5,4,4,TRUE,0.10500001395121215,4,5,4,3,FALSE,FALSE
1,1,learned,93,3,9,4,5,4,5,FALSE,2355.3850000025705,5,6,5,4,FALSE,FALSE
1,1,learned,94,5,2,4,7,4,7,FALSE,500.93499998888,2,4,2,2,FALSE,FALSE
1,1,learned,95,4,1,3,6,3,3,TRUE,1627.8400000007823,3,6,3,2,FALSE,FALSE
1,1,learned,96,3,8,2,4,2,2,TRUE,1601.250000006985,3,4,3,3,FALSE,FALSE
1,1,learned,97,12,2,10,13,10,13,FALSE,1564.175000006333,4,6,4,4,FALSE,FALSE
1,1,learned,98,4,7,5,6,NA,5,TRUE,1554.1399999926798,2,2,2,2,FALSE,TRUE
1,1,learned,99,2,12,1,3,1,3,FALSE,1533.4849999928847,4,NA,4,4,TRUE,FALSE
1,1,learned,100,11,8,12,13,12,13,FALSE,1602.0100000021048,3,4,3,2,FALSE,FALSE
1,1,learned,101,5,1,3,7,3,7,FALSE,1327.625000005588,3,5,3,3,FALSE,FALSE
1,1,learned,102,11,10,9,13,NA,13,TRUE,626.1400000080466,3,3,3,2,FALSE,TRUE
1,1,learned,103,3,10,2,5,2,2,TRUE,1008.5550000071526,4,6,4,4,FALSE,FALSE
1,1,learned,104,1,9,8,2,8,8,TRUE,1081.1349999858066,2,NA,2,2,TRUE,FALSE
1,1,learned,105,2,5,4,1,4,1,FALSE,1422.970000013709,2,NA,2,2,TRUE,FALSE
1,1,learned,106,8,6,1,10,1,1,TRUE,1047.205000010319,4,NA,4,4,TRUE,FALSE
1,1,learned,107,5,6,4,7,NA,7,TRUE,1354.4049999909475,2,2,2,2,FALSE,TRUE
1,1,learned,108,4,8,3,6,3,3,TRUE,2168.969999998808,4,7,4,3,FALSE,FALSE
1,1,learned,109,12,9,11,13,11,11,TRUE,1428.7649999894202,2,3,2,2,FALSE,FALSE
1,1,learned,110,1,3,2,8,2,8,FALSE,1125.9799999822862,2,NA,2,2,TRUE,FALSE
1,1,learned,111,4,10,5,6,5,6,FALSE,996.095000009518,6,8,6,4,FALSE,FALSE
1,1,learned,112,11,1,9,12,9,9,TRUE,1285.0200000102632,3,4,3,3,FALSE,FALSE
1,1,learned,113,5,8,3,7,3,7,FALSE,1289.6699999985285,4,6,4,4,FALSE,FALSE
1,1,learned,114,4,8,2,3,2,2,TRUE,3209.6049999818206,3,4,3,3,FALSE,FALSE
1,1,learned,115,11,8,9,13,9,9,TRUE,2037.8849999979136,2,4,2,2,FALSE,FALSE
1,1,learned,116,8,2,1,9,1,9,FALSE,1315.954999998212,2,NA,2,2,TRUE,FALSE
1,1,learned,117,4,10,3,6,3,3,TRUE,1127.970000001602,5,8,5,4,FALSE,FALSE
1,1,learned,118,3,6,2,5,NA,5,TRUE,2197.665000014007,3,3,3,2,FALSE,TRUE
1,1,learned,119,3,6,4,2,4,4,TRUE,590.3600000021979,2,3,2,2,FALSE,FALSE
1,1,learned,120,5,1,4,7,4,7,FALSE,1151.4249999891035,3,5,3,3,FALSE,FALSE
1,1,learned,121,4,9,2,6,2,2,TRUE,2108.7699999916367,4,8,4,4,FALSE,FALSE
1,1,learned,122,9,2,8,11,8,11,FALSE,707.9749999972992,3,6,3,3,FALSE,FALSE
1,1,learned,123,9,4,8,11,8,8,TRUE,1805.019999999553,4,7,4,4,FALSE,FALSE
1,1,learned,124,8,12,10,1,10,10,TRUE,1597.7549999952316,2,NA,2,2,TRUE,FALSE
1,1,learned,125,12,8,10,13,10,13,FALSE,697.2349999998696,2,4,2,2,FALSE,FALSE
1,1,learned,126,2,5,3,1,3,1,FALSE,117.05999998934568,2,NA,2,2,TRUE,FALSE
1,1,learned,127,8,3,1,9,1,9,FALSE,420.7449999810197,3,NA,3,3,TRUE,FALSE
1,1,learned,128,2,12,1,4,1,4,FALSE,572.0100000035018,4,NA,4,4,TRUE,FALSE
1,1,learned,129,8,2,1,10,1,10,FALSE,486.72000001510605,2,NA,2,2,TRUE,FALSE
1,1,learned,130,6,5,4,7,NA,4,TRUE,498.72999999206513,2,2,2,2,FALSE,TRUE
1,1,learned,131,3,10,2,4,2,2,TRUE,582.8050000127405,4,5,4,4,FALSE,FALSE
1,1,learned,132,3,10,4,5,4,4,TRUE,304.08499998180196,5,6,5,4,FALSE,FALSE
1,1,learned,133,2,7,3,4,NA,3,TRUE,458.7500000195578,3,3,3,3,FALSE,TRUE
1,1,learned,134,13,10,12,11,12,11,FALSE,409.7000000188127,2,3,2,2,FALSE,FALSE
1,1,learned,135,6,3,4,7,4,7,FALSE,771.770000021439,2,3,2,2,FALSE,FALSE
1,1,learned,136,5,2,3,4,NA,3,TRUE,434.9450000156649,2,2,2,2,FALSE,TRUE
1,1,learned,137,3,7,5,4,5,5,TRUE,941.835000005085,2,3,2,2,FALSE,FALSE
1,1,learned,138,5,8,4,7,4,7,FALSE,666.7900000177324,4,6,4,4,FALSE,FALSE
1,1,learned,139,4,9,2,5,2,2,TRUE,3211.750000016764,4,6,4,4,FALSE,FALSE
1,1,learned,140,13,8,11,12,NA,12,TRUE,482.675000006333,3,3,3,3,FALSE,TRUE
1,1,learned,141,4,7,6,2,6,6,TRUE,367.5299999886192,2,4,2,2,FALSE,FALSE
1,1,learned,142,2,6,4,3,4,3,FALSE,802.1649999720976,2,3,2,2,FALSE,FALSE
1,1,learned,143,13,1,11,12,NA,11,TRUE,770.8750000167638,4,4,4,4,FALSE,TRUE
1,1,learned,144,3,9,2,4,2,2,TRUE,742.035000002943,4,5,4,4,FALSE,FALSE
1,1,learned,145,5,6,7,3,7,3,FALSE,1187.1299999766052,2,3,2,2,FALSE,FALSE
1,1,learned,146,8,11,9,1,9,9,TRUE,458.4500000057742,2,NA,2,2,TRUE,FALSE
1,1,learned,147,6,2,4,7,4,7,FALSE,935.9650000114924,2,4,2,2,FALSE,FALSE
1,1,learned,148,2,6,4,1,4,4,TRUE,891.169999988284,2,NA,2,2,TRUE,FALSE
1,1,learned,149,2,7,4,1,4,4,TRUE,678.6999999899417,3,NA,3,3,TRUE,FALSE
1,1,learned,150,1,13,8,2,8,8,TRUE,4811.010000005364,4,NA,4,4,TRUE,FALSE
1,1,learned,151,2,10,1,4,1,4,FALSE,1770.9199999808334,3,NA,3,3,TRUE,FALSE
1,1,learned,152,5,1,3,4,NA,3,TRUE,4680.145000020508,3,3,3,3,FALSE,TRUE
1,1,learned,153,9,10,8,11,8,8,TRUE,1982.164999993518,2,3,2,2,FALSE,FALSE
1,1,learned,154,5,6,4,3,4,4,TRUE,1780.8400000212714,2,3,2,2,FALSE,FALSE
1,1,learned,155,11,2,12,13,12,12,TRUE,1332.9749999972992,5,6,5,4,FALSE,FALSE
1,1,learned,156,3,1,2,5,2,5,FALSE,2177.889999992214,2,4,2,2,FALSE,FALSE
1,1,learned,157,8,13,9,10,NA,9,TRUE,2050.295000023209,3,3,3,3,FALSE,TRUE
1,1,learned,158,1,4,2,8,2,8,FALSE,1609.8149999743327,2,NA,2,2,TRUE,FALSE
1,1,learned,159,4,10,2,5,2,2,TRUE,1324.010000011418,4,6,4,4,FALSE,FALSE
1,2,learned,1,6,8,4,7,4,7,FALSE,9245.230000000449,4,6,4,4,FALSE,FALSE
1,2,learned,2,3,6,4,5,4,4,TRUE,4395.134999998845,2,3,2,2,FALSE,FALSE
1,2,learned,3,4,10,5,6,5,6,FALSE,11865.734999999404,6,8,6,4,FALSE,FALSE
1,2,learned,4,10,11,12,8,12,12,TRUE,8127.55000000447,2,3,2,2,FALSE,FALSE
1,2,learned,5,13,9,11,12,11,11,TRUE,11064.91000001598,2,3,2,2,FALSE,FALSE
1,2,learned,6,1,12,8,2,8,8,TRUE,10609.014999994542,3,NA,3,3,TRUE,FALSE
1,2,learned,7,4,9,3,5,3,5,FALSE,6344.744999980554,5,6,5,4,FALSE,FALSE
1,2,learned,8,13,10,12,11,12,12,TRUE,7861.789999995381,2,3,2,2,FALSE,FALSE
1,2,learned,9,7,3,5,6,5,5,TRUE,11727.740000002086,2,3,2,2,FALSE,FALSE
1,2,learned,10,4,1,3,5,3,5,FALSE,8451.785000012256,3,4,3,2,FALSE,FALSE
1,2,learned,11,5,6,4,7,NA,4,TRUE,10986.800000012852,2,2,2,2,FALSE,TRUE
1,2,learned,12,8,2,1,10,1,10,FALSE,9133.630000025963,2,NA,2,2,TRUE,FALSE
1,2,learned,13,11,8,12,13,12,12,TRUE,12141.499999997672,3,4,3,2,FALSE,FALSE
1,2,learned,14,4,9,5,6,5,5,TRUE,14028.154999977907,6,8,6,4,FALSE,FALSE
1,2,learned,15,2,5,3,1,3,3,TRUE,6884.690000006463,2,NA,2,2,TRUE,FALSE
1,2,learned,16,11,1,9,12,9,9,TRUE,10454.8249999932,3,4,3,3,FALSE,FALSE
1,2,learned,17,12,9,11,13,11,13,FALSE,4393.429999996908,2,3,2,2,FALSE,FALSE
1,2,learned,18,9,13,11,8,11,11,TRUE,7087.375000002794,2,4,2,2,FALSE,FALSE
1,2,learned,19,11,8,9,12,9,9,TRUE,6010.7150000114925,2,3,2,2,FALSE,FALSE
1,2,learned,20,5,6,7,3,7,7,TRUE,8816.659999981988,2,3,2,2,FALSE,FALSE
1,2,learned,21,12,9,11,10,11,10,FALSE,8668.405000003986,2,3,2,2,FALSE,FALSE
1,2,learned,22,1,7,2,8,2,8,FALSE,9140.714999986812,4,NA,4,4,TRUE,FALSE
1,2,learned,23,9,1,8,11,8,8,TRUE,5386.804999987129,2,5,2,2,FALSE,FALSE
1,2,learned,24,1,9,8,2,8,2,FALSE,9136.27499999758,2,NA,2,2,TRUE,FALSE
1,2,learned,25,1,3,2,8,2,2,TRUE,6457.305000018328,2,NA,2,2,TRUE,FALSE
1,2,learned,26,2,9,1,3,1,1,TRUE,9720.910000003874,3,NA,3,3,TRUE,FALSE
1,2,learned,27,11,1,9,13,9,13,FALSE,5285.775000025518,3,5,3,3,FALSE,FALSE
1,2,learned,28,1,13,8,2,8,8,TRUE,10205.974999989385,4,NA,4,4,TRUE,FALSE
1,2,learned,29,8,12,10,9,10,10,TRUE,2226.2549999868497,2,3,2,2,FALSE,FALSE
1,2,learned,30,4,7,6,3,6,6,TRUE,21293.94499998307,2,3,2,2,FALSE,FALSE
1,2,learned,31,8,13,9,1,9,1,FALSE,8060.975000000559,3,NA,3,3,TRUE,FALSE
1,2,learned,32,4,1,5,6,5,6,FALSE,5996.8250000094995,4,6,4,2,FALSE,FALSE
1,2,learned,33,4,8,2,6,2,6,FALSE,3216.6499999877997,3,7,3,3,FALSE,FALSE
1,2,learned,34,1,10,8,2,8,8,TRUE,4933.874999987893,2,NA,2,2,TRUE,FALSE
1,2,learned,35,3,6,2,5,NA,2,TRUE,6262.404999986757,3,3,3,2,FALSE,TRUE
1,2,learned,36,12,9,10,13,NA,13,TRUE,3771.785000018775,3,3,3,2,FALSE,TRUE
1,2,learned,37,4,8,3,5,3,5,FALSE,8253.089999983553,4,5,4,3,FALSE,FALSE
1,2,learned,38,1,6,2,8,2,8,FALSE,3737.154999980703,3,NA,3,3,TRUE,FALSE
1,2,learned,39,5,1,3,7,3,3,TRUE,4069.3599999942817,3,5,3,3,FALSE,FALSE
1,2,learned,40,8,12,10,1,10,10,TRUE,8606.809999997728,2,NA,2,2,TRUE,FALSE
1,2,learned,41,12,1,10,13,10,13,FALSE,3289.5100000025705,3,5,3,3,FALSE,FALSE
1,2,learned,42,2,8,1,3,1,1,TRUE,10142.255000013392,2,NA,2,2,TRUE,FALSE
1,2,learned,43,9,4,8,11,8,11,FALSE,8989.354999998119,4,7,4,4,FALSE,FALSE
1,2,learned,44,3,8,2,4,2,2,TRUE,7186.069999996573,3,4,3,3,FALSE,FALSE
1,2,learned,45,8,12,9,1,9,1,FALSE,5925.770000001416,3,NA,3,2,TRUE,FALSE
1,2,learned,46,12,2,10,11,10,10,TRUE,7365.634999994654,4,5,4,4,FALSE,FALSE
1,2,learned,47,2,6,3,1,3,1,FALSE,3633.655000012368,3,NA,3,2,TRUE,FALSE
1,2,learned,48,1,11,8,2,8,2,FALSE,4850.845000008121,3,NA,3,3,TRUE,FALSE
1,2,learned,49,7,2,5,6,NA,6,TRUE,7328.854999999981,3,3,3,3,FALSE,TRUE
1,2,learned,50,12,8,10,13,10,10,TRUE,15514.460000006016,2,4,2,2,FALSE,FALSE
1,2,learned,51,6,3,4,7,4,4,TRUE,2677.649999998044,2,3,2,2,FALSE,FALSE
1,2,learned,52,12,1,11,13,11,13,FALSE,6547.835000004619,4,5,4,3,FALSE,FALSE
1,2,learned,53,3,10,4,5,4,4,TRUE,2803.955000010319,5,6,5,4,FALSE,FALSE
1,2,learned,54,9,10,8,11,8,8,TRUE,2891.814999980852,2,3,2,2,FALSE,FALSE
1,2,learned,55,5,1,4,7,4,7,FALSE,10027.910000003874,3,5,3,3,FALSE,FALSE
1,2,learned,56,8,13,10,1,10,1,FALSE,14420.704999996817,3,NA,3,3,TRUE,FALSE
1,2,learned,57,1,5,2,8,2,2,TRUE,10311.895000020972,3,NA,3,3,TRUE,FALSE
1,2,learned,58,4,8,2,3,2,2,TRUE,3864.6850000075065,3,4,3,3,FALSE,FALSE
1,2,learned,59,4,9,2,5,2,5,FALSE,3596.269999979995,4,6,4,4,FALSE,FALSE
1,2,learned,60,11,1,12,13,12,12,TRUE,5230.639999994542,4,5,4,3,FALSE,FALSE
1,2,learned,61,8,4,1,9,1,1,TRUE,7728.964999987744,3,NA,3,3,TRUE,FALSE
1,2,learned,62,3,10,2,5,2,2,TRUE,13540.89499998372,4,6,4,4,FALSE,FALSE
1,2,learned,63,4,10,2,6,2,6,FALSE,12165.784999989904,4,8,4,4,FALSE,FALSE
1,2,learned,64,4,7,3,2,3,3,TRUE,5883.269999991171,3,4,3,2,FALSE,FALSE
1,2,learned,65,2,5,3,4,NA,3,TRUE,19899.990000005346,2,2,2,2,FALSE,TRUE
1,2,learned,66,12,8,11,13,11,13,FALSE,4290.440000011586,3,4,3,2,FALSE,FALSE
1,2,learned,67,4,7,6,2,6,6,TRUE,12495.410000002945,2,4,2,2,FALSE,FALSE
1,2,learned,68,1,4,2,8,2,8,FALSE,5463.59499997925,2,NA,2,2,TRUE,FALSE
1,2,learned,69,4,8,2,5,2,2,TRUE,5043.720000015572,3,5,3,3,FALSE,FALSE
1,2,learned,70,10,4,8,12,8,8,TRUE,2625.285000016447,4,7,4,4,FALSE,FALSE
1,2,learned,71,8,4,1,10,1,10,FALSE,6965.570000000298,3,NA,3,3,TRUE,FALSE
1,2,learned,72,4,8,3,6,3,6,FALSE,7623.55000001844,4,7,4,3,FALSE,FALSE
1,2,learned,73,2,11,1,4,1,1,TRUE,6644.025000015739,4,NA,4,4,TRUE,FALSE
1,2,learned,74,7,4,5,6,NA,5,TRUE,4202.7049999739975,2,2,2,2,FALSE,TRUE
1,2,learned,75,13,8,11,12,NA,12,TRUE,4599.0150000141,3,3,3,3,FALSE,TRUE
1,2,learned,76,2,6,4,1,4,4,TRUE,15659.805000002496,2,NA,2,2,TRUE,FALSE
1,2,learned,77,4,1,3,6,3,3,TRUE,4605.600000009872,3,6,3,2,FALSE,FALSE
1,2,learned,78,5,8,4,7,4,7,FALSE,4329.040000011679,4,6,4,4,FALSE,FALSE
1,2,learned,79,12,8,10,11,10,10,TRUE,2798.6850000158884,2,3,2,2,FALSE,FALSE
1,2,learned,80,4,10,2,5,2,2,TRUE,985.7400000039488,4,6,4,4,FALSE,FALSE
1,2,learned,81,3,7,5,4,5,4,FALSE,8902.795000001788,2,3,2,2,FALSE,FALSE
1,2,learned,82,2,12,1,4,1,1,TRUE,4984.165000001434,4,NA,4,4,TRUE,FALSE
1,2,learned,83,11,8,9,13,9,9,TRUE,4850.5049999803305,2,4,2,2,FALSE,FALSE
1,2,learned,84,10,2,8,12,8,8,TRUE,4999.665000010282,3,6,3,3,FALSE,FALSE
1,2,learned,85,4,9,2,3,2,2,TRUE,2119.6950000012293,4,5,4,4,FALSE,FALSE
1,2,learned,86,2,11,1,3,1,1,TRUE,5288.0050000092015,4,NA,4,4,TRUE,FALSE
1,2,learned,87,3,7,5,2,5,5,TRUE,3862.3999999836087,2,4,2,2,FALSE,FALSE
1,2,learned,88,8,11,10,1,10,10,TRUE,2710.3099999949336,3,NA,3,2,TRUE,FALSE
1,2,learned,89,4,1,2,3,2,3,FALSE,8282.674999994691,2,3,2,2,FALSE,FALSE
1,2,learned,90,12,2,11,13,11,13,FALSE,5423.459999991115,5,6,5,4,FALSE,FALSE
1,2,learned,91,4,8,5,6,5,5,TRUE,16031.94499999564,5,7,5,3,FALSE,FALSE
1,2,learned,92,13,1,11,12,NA,12,TRUE,11838.779999990948,4,4,4,4,FALSE,TRUE
1,2,learned,93,4,9,2,6,2,2,TRUE,8111.315000016708,4,8,4,4,FALSE,FALSE
1,2,learned,94,5,2,3,7,3,7,FALSE,4299.809999996796,2,4,2,2,FALSE,FALSE
1,2,learned,95,5,8,3,4,NA,4,TRUE,4375.609999988228,4,4,4,4,FALSE,TRUE
1,2,learned,96,8,6,1,9,1,9,FALSE,2947.7849999968894,4,NA,4,4,TRUE,FALSE
1,2,learned,97,3,8,4,5,4,4,TRUE,5367.934999987483,4,5,4,3,FALSE,FALSE
1,2,learned,98,7,1,5,6,NA,6,TRUE,2813.39999998454,4,4,4,4,FALSE,TRUE
1,2,learned,99,6,5,4,7,NA,4,TRUE,3818.735000008251,2,2,2,2,FALSE,TRUE
1,2,learned,100,12,1,10,11,10,11,FALSE,8110.95500001125,3,4,3,3,FALSE,FALSE
1,2,learned,101,8,3,1,9,1,1,TRUE,7010.689999995753,3,NA,3,3,TRUE,FALSE
1,2,learned,102,4,10,3,5,3,3,TRUE,8710.664999991655,5,6,5,4,FALSE,FALSE
1,2,learned,103,11,10,9,13,NA,9,TRUE,11086.884999996984,3,3,3,2,FALSE,TRUE
1,2,learned,104,11,10,12,13,12,12,TRUE,4501.140000007581,2,3,2,2,FALSE,FALSE
1,2,learned,105,2,7,3,4,NA,3,TRUE,6979.765000025742,3,3,3,3,FALSE,TRUE
1,2,learned,106,10,9,8,12,8,8,TRUE,2645.7999999988824,2,3,2,2,FALSE,FALSE
1,2,learned,107,9,12,11,8,11,11,TRUE,2842.8599999751896,2,3,2,2,FALSE,FALSE
1,2,learned,108,10,3,8,12,8,8,TRUE,4445.684999984689,4,7,4,4,FALSE,FALSE
1,2,learned,109,8,11,9,10,9,10,FALSE,12920.390000013636,2,3,2,2,FALSE,FALSE
1,2,learned,110,4,10,2,3,2,2,TRUE,4190.544999990612,4,5,4,4,FALSE,FALSE
1,2,learned,111,9,2,8,11,8,8,TRUE,3066.930000001099,3,6,3,3,FALSE,FALSE
1,2,learned,112,4,7,5,3,5,5,TRUE,6400.734999974258,2,3,2,2,FALSE,FALSE
1,2,learned,113,11,2,12,13,12,13,FALSE,9941.809999989346,5,6,5,4,FALSE,FALSE
1,2,learned,114,12,2,10,13,10,13,FALSE,10352.725000004284,4,6,4,4,FALSE,FALSE
1,2,learned,115,2,9,1,4,1,4,FALSE,4399.805000022985,3,NA,3,3,TRUE,FALSE
1,2,learned,116,2,7,4,1,4,4,TRUE,4219.814999990165,3,NA,3,3,TRUE,FALSE
1,2,learned,117,3,1,2,4,2,4,FALSE,2553.830000018701,2,3,2,2,FALSE,FALSE
1,2,learned,118,2,10,1,3,1,3,FALSE,6264.794999995269,3,NA,3,3,TRUE,FALSE
1,2,learned,119,4,9,3,6,3,6,FALSE,5785.689999990165,5,8,5,4,FALSE,FALSE
1,2,learned,120,3,10,2,4,2,4,FALSE,3445.8400000007823,4,5,4,4,FALSE,FALSE
1,2,learned,121,3,9,4,5,4,5,FALSE,10519.88000000734,5,6,5,4,FALSE,FALSE
1,2,learned,122,4,7,5,2,5,2,FALSE,2305.415000010282,2,4,2,2,FALSE,FALSE
1,2,learned,123,5,8,3,7,3,3,TRUE,2666.064999997616,4,6,4,4,FALSE,FALSE
1,2,learned,124,2,8,1,4,1,1,TRUE,2448.6500000059605,2,NA,2,2,TRUE,FALSE
1,2,learned,125,11,2,9,13,9,9,TRUE,4348.924999997951,4,6,4,4,FALSE,FALSE
1,2,learned,126,3,8,2,5,2,5,FALSE,3176.644999999553,3,5,3,3,FALSE,FALSE
1,2,learned,127,3,9,2,4,2,2,TRUE,4988.669999992475,4,5,4,4,FALSE,FALSE
1,2,learned,128,3,9,2,5,2,2,TRUE,5527.594999992289,4,6,4,4,FALSE,FALSE
1,2,learned,129,2,5,4,1,4,4,TRUE,3329.57499998156,2,NA,2,2,TRUE,FALSE
1,2,learned,130,3,1,4,5,4,4,TRUE,3720.135000010952,3,4,3,2,FALSE,FALSE
1,2,learned,131,10,13,12,8,12,12,TRUE,5701.830000005662,2,4,2,2,FALSE,FALSE
1,2,learned,132,5,6,4,3,4,4,TRUE,4488.634999986738,2,3,2,2,FALSE,FALSE
1,2,learned,133,5,2,3,4,NA,3,TRUE,2837.200000008568,2,2,2,2,FALSE,TRUE
1,2,learned,134,8,2,1,9,1,1,TRUE,4048.6350000137463,2,NA,2,2,TRUE,FALSE
1,2,learned,135,4,10,3,6,3,6,FALSE,7286.019999999553,5,8,5,4,FALSE,FALSE
1,2,learned,136,4,1,2,5,2,5,FALSE,4434.209999977611,2,4,2,2,FALSE,FALSE
1,2,learned,137,4,7,5,6,NA,5,TRUE,3768.7250000024214,2,2,2,2,FALSE,TRUE
1,2,learned,138,8,11,9,1,9,1,FALSE,4397.16999998223,2,NA,2,2,TRUE,FALSE
1,2,learned,139,5,1,3,4,NA,4,TRUE,5655.76500000339,3,3,3,3,FALSE,TRUE
1,2,learned,140,5,2,4,7,4,7,FALSE,2094.4799999995157,2,4,2,2,FALSE,FALSE
1,2,learned,141,8,6,1,10,1,10,FALSE,4957.300000009127,4,NA,4,4,TRUE,FALSE
1,2,learned,142,11,10,12,9,12,9,FALSE,2650.370000017807,2,3,2,2,FALSE,FALSE
1,2,learned,143,3,1,2,5,2,2,TRUE,2371.6349999886006,2,4,2,2,FALSE,FALSE
1,2,learned,144,3,6,4,2,4,2,FALSE,4136.194999999367,2,3,2,2,FALSE,FALSE
1,2,learned,145,2,6,4,3,4,4,TRUE,2216.8349999990314,2,3,2,2,FALSE,FALSE
1,2,learned,146,6,1,4,7,4,4,TRUE,3548.7450000075623,3,5,3,3,FALSE,FALSE
1,2,learned,147,11,2,9,12,9,9,TRUE,9975.77499999851,4,5,4,4,FALSE,FALSE
1,2,learned,148,8,3,1,10,1,1,TRUE,2773.8349999999627,3,NA,3,3,TRUE,FALSE
1,2,learned,149,10,1,8,12,8,8,TRUE,5676.789999997243,2,5,2,2,FALSE,FALSE
1,2,learned,150,2,12,1,3,1,3,FALSE,9453.26999999769,4,NA,4,4,TRUE,FALSE
1,2,learned,151,8,5,1,10,1,1,TRUE,3243.0100000053644,4,NA,4,4,TRUE,FALSE
1,2,learned,152,8,13,9,10,NA,9,TRUE,1502.9800000190735,3,3,3,3,FALSE,TRUE
1,2,learned,153,4,1,2,6,2,2,TRUE,2405.2650000080466,2,6,2,2,FALSE,FALSE
1,2,learned,154,6,2,4,7,4,4,TRUE,5844.469999982044,2,4,2,2,FALSE,FALSE
1,2,learned,155,9,3,8,11,8,8,TRUE,3268.3150000227615,4,7,4,4,FALSE,FALSE
1,2,learned,156,3,7,4,2,4,4,TRUE,4091.909999988042,3,4,3,2,FALSE,FALSE
1,2,learned,157,8,5,1,9,1,9,FALSE,1951.0850000083449,4,NA,4,4,TRUE,FALSE
1,2,learned,158,2,7,3,1,3,3,TRUE,2595.130000001751,3,NA,3,3,TRUE,FALSE
1,2,learned,159,2,10,1,4,1,4,FALSE,2027.9099999750033,3,NA,3,3,TRUE,FALSE
1,3,learned,1,8,12,10,1,10,10,TRUE,14928.309999988414,2,NA,2,2,TRUE,FALSE
1,3,learned,2,2,9,1,3,1,3,FALSE,7828.740000026301,3,NA,3,3,TRUE,FALSE
1,3,learned,3,5,8,3,4,NA,3,TRUE,12331.979999959469,4,4,4,4,FALSE,TRUE
1,3,learned,4,10,9,8,12,8,12,FALSE,9028.749999997206,2,3,2,2,FALSE,FALSE
1,3,learned,5,2,6,4,3,4,4,TRUE,2747.400000050664,2,3,2,2,FALSE,FALSE
1,3,learned,6,11,1,9,13,9,13,FALSE,3069.6749999765307,3,5,3,3,FALSE,FALSE
1,3,learned,7,2,9,1,4,1,1,TRUE,5543.804999965243,3,NA,3,3,TRUE,FALSE
1,3,learned,8,4,10,2,5,2,5,FALSE,8164.464999980293,4,6,4,4,FALSE,FALSE
1,3,learned,9,11,10,12,13,12,12,TRUE,3052.0099999848753,2,3,2,2,FALSE,FALSE
1,3,learned,10,2,11,1,4,1,4,FALSE,1758.949999988079,4,NA,4,4,TRUE,FALSE
1,3,learned,11,4,9,2,3,2,3,FALSE,4149.740000022575,4,5,4,4,FALSE,FALSE
1,3,learned,12,2,5,4,1,4,4,TRUE,3598.4100000355393,2,NA,2,2,TRUE,FALSE
1,3,learned,13,7,1,5,6,NA,5,TRUE,3846.970000013709,4,4,4,4,FALSE,TRUE
1,3,learned,14,4,10,3,6,3,3,TRUE,4118.910000019707,5,8,5,4,FALSE,FALSE
1,3,learned,15,13,8,11,12,NA,12,TRUE,4893.5799999739975,3,3,3,3,FALSE,TRUE
1,3,learned,16,3,8,4,5,4,5,FALSE,15249.574999965727,4,5,4,3,FALSE,FALSE
1,3,learned,17,3,10,4,5,4,5,FALSE,7100.480000022799,5,6,5,4,FALSE,FALSE
1,3,learned,18,5,6,4,3,4,4,TRUE,2258.12999997288,2,3,2,2,FALSE,FALSE
1,3,learned,19,12,1,11,13,11,11,TRUE,5207.639999978244,4,5,4,3,FALSE,FALSE
1,3,learned,20,4,7,5,2,5,5,TRUE,2265.7949999561533,2,4,2,2,FALSE,FALSE
1,3,learned,21,8,13,10,1,10,1,FALSE,16303.150000050664,3,NA,3,3,TRUE,FALSE
1,3,learned,22,5,6,7,3,7,7,TRUE,3156.254999979399,2,3,2,2,FALSE,FALSE
1,3,learned,23,13,9,11,12,11,12,FALSE,3508.310000005178,2,3,2,2,FALSE,FALSE
1,3,learned,24,2,12,1,3,1,3,FALSE,4543.919999967329,4,NA,4,4,TRUE,FALSE
1,3,learned,25,5,2,4,7,4,4,TRUE,5901.820000028238,2,4,2,2,FALSE,FALSE
1,3,learned,26,8,12,10,9,10,10,TRUE,6698.8700000224635,2,3,2,2,FALSE,FALSE
1,3,learned,27,5,8,3,7,3,3,TRUE,2880.555000039749,4,6,4,4,FALSE,FALSE
1,3,learned,28,2,5,3,1,3,3,TRUE,5463.035000022501,2,NA,2,2,TRUE,FALSE
1,3,learned,29,11,1,12,13,12,13,FALSE,6693.535000028089,4,5,4,3,FALSE,FALSE
1,3,learned,30,2,10,1,3,1,1,TRUE,11509.9100000225,3,NA,3,3,TRUE,FALSE
1,3,learned,31,2,7,3,1,3,3,TRUE,7320.964999962598,3,NA,3,3,TRUE,FALSE
1,3,learned,32,10,1,8,12,8,8,TRUE,7655.785000010394,2,5,2,2,FALSE,FALSE
1,3,learned,33,1,5,2,8,2,2,TRUE,8932.015000027604,3,NA,3,3,TRUE,FALSE
1,3,learned,34,3,1,2,5,2,2,TRUE,5255.77500002645,2,4,2,2,FALSE,FALSE
1,3,learned,35,1,12,8,2,8,8,TRUE,8164.71500002034,3,NA,3,3,TRUE,FALSE
1,3,learned,36,4,7,6,3,6,6,TRUE,2533.805000013672,2,3,2,2,FALSE,FALSE
1,3,learned,37,4,9,3,6,3,3,TRUE,2998.1099999863654,5,8,5,4,FALSE,FALSE
1,3,learned,38,4,9,2,6,2,2,TRUE,2336.2199999978766,4,8,4,4,FALSE,FALSE
1,3,learned,39,4,8,2,5,2,5,FALSE,10545.02000001911,3,5,3,3,FALSE,FALSE
1,3,learned,40,8,6,1,9,1,1,TRUE,4151.714999985881,4,NA,4,4,TRUE,FALSE
1,3,learned,41,11,2,12,13,12,13,FALSE,7293.750000012107,5,6,5,4,FALSE,FALSE
1,3,learned,42,4,10,2,3,2,3,FALSE,2083.629999949597,4,5,4,4,FALSE,FALSE
1,3,learned,43,6,1,4,7,4,4,TRUE,4662.905000033788,3,5,3,3,FALSE,FALSE
1,3,learned,44,8,2,1,9,1,1,TRUE,4760.745000035502,2,NA,2,2,TRUE,FALSE
1,3,learned,45,3,9,4,5,4,4,TRUE,4196.754999982193,5,6,5,4,FALSE,FALSE
1,3,learned,46,10,3,8,12,8,8,TRUE,9273.375000048429,4,7,4,4,FALSE,FALSE
1,3,learned,47,4,8,2,6,2,2,TRUE,3493.680000014603,3,7,3,3,FALSE,FALSE
1,3,learned,48,12,1,10,11,10,10,TRUE,2313.2849999815226,3,4,3,3,FALSE,FALSE
1,3,learned,49,5,8,4,7,4,7,FALSE,6499.330000020564,4,6,4,4,FALSE,FALSE
1,3,learned,50,12,2,11,13,11,11,TRUE,6296.999999962747,5,6,5,4,FALSE,FALSE
1,3,learned,51,3,7,4,2,4,4,TRUE,4920.265000022948,3,4,3,2,FALSE,FALSE
1,3,learned,52,9,10,8,11,8,11,FALSE,6790.210000006482,2,3,2,2,FALSE,FALSE
1,3,learned,53,11,10,12,9,12,12,TRUE,11330.435000010766,2,3,2,2,FALSE,FALSE
1,3,learned,54,5,2,3,4,NA,4,TRUE,6923.060000001453,2,2,2,2,FALSE,TRUE
1,3,learned,55,13,1,11,12,NA,11,TRUE,3320.7349999574944,4,4,4,4,FALSE,TRUE
1,3,learned,56,4,9,2,5,2,2,TRUE,3282.7099999999627,4,6,4,4,FALSE,FALSE
1,3,learned,57,8,6,1,10,1,1,TRUE,4656.384999980219,4,NA,4,4,TRUE,FALSE
1,3,learned,58,3,1,4,5,4,4,TRUE,2584.759999997914,3,4,3,2,FALSE,FALSE
1,3,learned,59,6,5,4,7,NA,4,TRUE,6724.210000014864,2,2,2,2,FALSE,TRUE
1,3,learned,60,4,8,3,5,3,3,TRUE,9902.515000022948,4,5,4,3,FALSE,FALSE
1,3,learned,61,10,13,12,8,12,12,TRUE,9404.960000013933,2,4,2,2,FALSE,FALSE
1,3,learned,62,6,8,4,7,4,4,TRUE,3854.4450000040233,4,6,4,4,FALSE,FALSE
1,3,learned,63,2,11,1,3,1,1,TRUE,10973.98000000976,4,NA,4,4,TRUE,FALSE
1,3,learned,64,4,10,3,5,3,3,TRUE,12087.69999997504,5,6,5,4,FALSE,FALSE
1,3,learned,65,12,9,10,13,NA,13,TRUE,4892.61500001885,3,3,3,2,FALSE,TRUE
1,3,learned,66,10,2,8,12,8,8,TRUE,7428.775000036694,3,6,3,3,FALSE,FALSE
1,3,learned,67,6,3,4,7,4,4,TRUE,17673.919999971986,2,3,2,2,FALSE,FALSE
1,3,learned,68,8,4,1,9,1,1,TRUE,2586.6249999962747,3,NA,3,3,TRUE,FALSE
1,3,learned,69,3,7,5,4,5,4,FALSE,1912.405000009574,2,3,2,2,FALSE,FALSE
1,3,learned,70,8,11,9,1,9,1,FALSE,2863.945000048727,2,NA,2,2,TRUE,FALSE
1,3,learned,71,12,9,11,10,11,11,TRUE,3010.38500003051,2,3,2,2,FALSE,FALSE
1,3,learned,72,2,7,3,4,NA,3,TRUE,2884.3950000014156,3,3,3,3,FALSE,TRUE
1,3,learned,73,3,10,2,5,2,5,FALSE,2898.214999994263,4,6,4,4,FALSE,FALSE
1,3,learned,74,4,8,2,3,2,2,TRUE,9081.780000007711,3,4,3,3,FALSE,FALSE
1,3,learned,75,4,10,2,6,2,2,TRUE,3763.5449999943376,4,8,4,4,FALSE,FALSE
1,3,learned,76,3,7,5,2,5,2,FALSE,8784.830000018701,2,4,2,2,FALSE,FALSE
1,3,learned,77,1,3,2,8,2,2,TRUE,3684.625000052154,2,NA,2,2,TRUE,FALSE
1,3,learned,78,3,6,4,2,4,4,TRUE,1987.844999996014,2,3,2,2,FALSE,FALSE
1,3,learned,79,3,10,2,4,2,2,TRUE,3842.040000017733,4,5,4,4,FALSE,FALSE
1,3,learned,80,9,1,8,11,8,11,FALSE,4841.599999985658,2,5,2,2,FALSE,FALSE
1,3,learned,81,4,7,5,6,NA,6,TRUE,4305.920000013895,2,2,2,2,FALSE,TRUE
1,3,learned,82,3,9,2,5,2,2,TRUE,14393.43500003498,4,6,4,4,FALSE,FALSE
1,3,learned,83,8,4,1,10,1,1,TRUE,3256.8849999802187,3,NA,3,3,TRUE,FALSE
1,3,learned,84,12,8,11,13,11,11,TRUE,2982.259999960661,3,4,3,2,FALSE,FALSE
1,3,learned,85,13,10,12,11,12,12,TRUE,3141.7099999962375,2,3,2,2,FALSE,FALSE
1,3,learned,86,4,1,3,5,3,3,TRUE,4504.984999948181,3,4,3,2,FALSE,FALSE
1,3,learned,87,12,2,10,11,10,11,FALSE,5153.77999999281,4,5,4,4,FALSE,FALSE
1,3,learned,88,8,13,9,1,9,1,FALSE,6856.399999989197,3,NA,3,3,TRUE,FALSE
1,3,learned,89,4,1,2,3,2,3,FALSE,3402.4099999805912,2,3,2,2,FALSE,FALSE
1,3,learned,90,2,5,3,4,NA,4,TRUE,3010.219999996014,2,2,2,2,FALSE,TRUE
1,3,learned,91,9,12,11,8,11,8,FALSE,11251.64999999106,2,3,2,2,FALSE,FALSE
1,3,learned,92,3,8,2,5,2,2,TRUE,4082.6450000163168,3,5,3,3,FALSE,FALSE
1,3,learned,93,4,1,2,5,2,2,TRUE,6578.750000043772,2,4,2,2,FALSE,FALSE
1,3,learned,94,12,8,10,11,10,10,TRUE,5483.964999963529,2,3,2,2,FALSE,FALSE
1,3,learned,95,11,8,9,12,9,12,FALSE,3525.985000014305,2,3,2,2,FALSE,FALSE
1,3,learned,96,3,6,4,5,4,4,TRUE,3389.79500002414,2,3,2,2,FALSE,FALSE
1,3,learned,97,1,7,2,8,2,2,TRUE,4599.040000000969,4,NA,4,4,TRUE,FALSE
1,3,learned,98,2,6,4,1,4,4,TRUE,2883.5100000146776,2,NA,2,2,TRUE,FALSE
1,3,learned,99,8,5,1,10,1,1,TRUE,2925.965000002645,4,NA,4,4,TRUE,FALSE
1,3,learned,100,3,6,2,5,NA,5,TRUE,2393.4299999959767,3,3,3,2,FALSE,TRUE
1,3,learned,101,8,11,10,1,10,1,FALSE,8251.729999959469,3,NA,3,2,TRUE,FALSE
1,3,learned,102,4,7,3,2,3,3,TRUE,3908.345000003465,3,4,3,2,FALSE,FALSE
1,3,learned,103,11,2,9,13,9,9,TRUE,10238.810000009837,4,6,4,4,FALSE,FALSE
1,3,learned,104,7,4,5,6,NA,6,TRUE,1677.6199999731034,2,2,2,2,FALSE,TRUE
1,3,learned,105,3,9,2,4,2,4,FALSE,8553.675000031479,4,5,4,4,FALSE,FALSE
1,3,learned,106,4,8,5,6,5,5,TRUE,2507.5599999977276,5,7,5,3,FALSE,FALSE
1,3,learned,107,4,1,3,6,3,3,TRUE,2603.7849999843165,3,6,3,2,FALSE,FALSE
1,3,learned,108,4,10,5,6,5,5,TRUE,2672.0750000094995,6,8,6,4,FALSE,FALSE
1,3,learned,109,8,12,9,1,9,1,FALSE,4982.689999975264,3,NA,3,2,TRUE,FALSE
1,3,learned,110,9,2,8,11,8,8,TRUE,5424.304999993183,3,6,3,3,FALSE,FALSE
1,3,learned,111,1,11,8,2,8,8,TRUE,2137.270000006072,3,NA,3,3,TRUE,FALSE
1,3,learned,112,11,8,12,13,12,12,TRUE,9802.03000002075,3,4,3,2,FALSE,FALSE
1,3,learned,113,4,8,3,6,3,3,TRUE,3376.7750000115484,4,7,4,3,FALSE,FALSE
1,3,learned,114,12,9,11,13,11,11,TRUE,5973.824999993667,2,3,2,2,FALSE,FALSE
1,3,learned,115,4,7,5,3,5,5,TRUE,4216.554999992251,2,3,2,2,FALSE,FALSE
1,3,learned,116,8,5,1,9,1,1,TRUE,2051.634999982082,4,NA,4,4,TRUE,FALSE
1,3,learned,117,4,9,3,5,3,3,TRUE,4723.250000039116,5,6,5,4,FALSE,FALSE
1,3,learned,118,2,12,1,4,1,1,TRUE,6985.6550000254065,4,NA,4,4,TRUE,FALSE
1,3,learned,119,4,1,5,6,5,5,TRUE,3006.224999960512,4,6,4,2,FALSE,FALSE
1,3,learned,120,2,8,1,3,1,1,TRUE,8672.324999992736,2,NA,2,2,TRUE,FALSE
1,3,learned,121,2,6,3,1,3,3,TRUE,2312.3000000482425,3,NA,3,2,TRUE,FALSE
1,3,learned,122,2,8,1,4,1,1,TRUE,7401.100000017323,2,NA,2,2,TRUE,FALSE
1,3,learned,123,4,7,6,2,6,6,TRUE,1365.2949999673292,2,4,2,2,FALSE,FALSE
1,3,learned,124,9,13,11,8,11,11,TRUE,2555.75,2,4,2,2,FALSE,FALSE
1,3,learned,125,11,1,9,12,9,12,FALSE,1990.2200000360608,3,4,3,3,FALSE,FALSE
1,3,learned,126,5,1,3,4,NA,4,TRUE,4080.090000003576,3,3,3,3,FALSE,TRUE
1,3,learned,127,5,6,4,7,NA,4,TRUE,3802.5199999688193,2,2,2,2,FALSE,TRUE
1,3,learned,128,8,2,1,10,1,10,FALSE,5357.755000004545,2,NA,2,2,TRUE,FALSE
1,3,learned,129,7,3,5,6,5,5,TRUE,2672.6400000043213,2,3,2,2,FALSE,FALSE
1,3,learned,130,12,8,10,13,10,10,TRUE,3325.470000039786,2,4,2,2,FALSE,FALSE
1,3,learned,131,2,10,1,4,1,4,FALSE,3178.789999975823,3,NA,3,3,TRUE,FALSE
1,3,learned,132,9,4,8,11,8,11,FALSE,1727.369999978691,4,7,4,4,FALSE,FALSE
1,3,learned,133,5,1,3,7,3,3,TRUE,10406.59999998752,3,5,3,3,FALSE,FALSE
1,3,learned,134,10,11,12,8,12,8,FALSE,2019.3100000033155,2,3,2,2,FALSE,FALSE
1,3,learned,135,11,2,9,12,9,9,TRUE,2857.9049999825656,4,5,4,4,FALSE,FALSE
1,3,learned,136,4,9,5,6,5,5,TRUE,2455.614999984391,6,8,6,4,FALSE,FALSE
1,3,learned,137,3,8,2,4,2,2,TRUE,6083.134999964386,3,4,3,3,FALSE,FALSE
1,3,learned,138,12,2,10,13,10,13,FALSE,5173.725000000559,4,6,4,4,FALSE,FALSE
1,3,learned,139,2,7,4,1,4,4,TRUE,10044.415000011211,3,NA,3,3,TRUE,FALSE
1,3,learned,140,7,2,5,6,NA,5,TRUE,3045.299999997951,3,3,3,3,FALSE,TRUE
1,3,learned,141,8,3,1,10,1,1,TRUE,2763.024999992922,3,NA,3,3,TRUE,FALSE
1,3,learned,142,6,2,4,7,4,4,TRUE,3354.4199999887496,2,4,2,2,FALSE,FALSE
1,3,learned,143,4,1,2,6,2,2,TRUE,3202.6049999985844,2,6,2,2,FALSE,FALSE
1,3,learned,144,9,3,8,11,8,11,FALSE,8495.779999997467,4,7,4,4,FALSE,FALSE
1,3,learned,145,1,4,2,8,2,2,TRUE,7146.989999978803,2,NA,2,2,TRUE,FALSE
1,3,learned,146,1,10,8,2,8,8,TRUE,8213.055000000633,2,NA,2,2,TRUE,FALSE
1,3,learned,147,1,9,8,2,8,8,TRUE,1647.5299999583513,2,NA,2,2,TRUE,FALSE
1,3,learned,148,1,6,2,8,2,2,TRUE,4773.960000020452,3,NA,3,3,TRUE,FALSE
1,3,learned,149,1,13,8,2,8,8,TRUE,15025.61499999091,4,NA,4,4,TRUE,FALSE
1,3,learned,150,5,1,4,7,4,7,FALSE,2016.0449999971315,3,5,3,3,FALSE,FALSE
1,3,learned,151,3,1,2,4,2,4,FALSE,6848.059999989346,2,3,2,2,FALSE,FALSE
1,3,learned,152,11,10,9,13,NA,13,TRUE,14276.654999993742,3,3,3,2,FALSE,TRUE
1,3,learned,153,12,1,10,13,10,10,TRUE,1281.16500005126,3,5,3,3,FALSE,FALSE
1,3,learned,154,8,11,9,10,9,10,FALSE,3741.964999994263,2,3,2,2,FALSE,FALSE
1,3,learned,155,8,13,9,10,NA,10,TRUE,2486.564999969676,3,3,3,3,FALSE,TRUE
1,3,learned,156,11,8,9,13,9,9,TRUE,2865.9300000295043,2,4,2,2,FALSE,FALSE
1,3,learned,157,5,2,3,7,3,3,TRUE,3665.694999974221,2,4,2,2,FALSE,FALSE
1,3,learned,158,8,3,1,9,1,1,TRUE,7954.499999992549,3,NA,3,3,TRUE,FALSE
1,3,learned,159,10,4,8,12,8,12,FALSE,5421.540000010282,4,7,4,4,FALSE,FALSE
1,4,learned,1,11,2,12,13,12,13,FALSE,30466.904999979302,5,6,5,4,FALSE,FALSE
1,4,learned,2,4,8,2,6,2,2,TRUE,23137.76000001235,3,7,3,3,FALSE,FALSE
1,4,learned,3,8,2,1,9,1,1,TRUE,23192.479999968786,2,NA,2,2,TRUE,FALSE
1,4,learned,4,8,12,10,9,10,10,TRUE,12328.570000012403,2,3,2,2,FALSE,FALSE
1,4,learned,5,3,1,2,5,2,2,TRUE,11070.009999966716,2,4,2,2,FALSE,FALSE
1,4,learned,6,3,1,2,4,2,2,TRUE,17690.650000004098,2,3,2,2,FALSE,FALSE
1,4,learned,7,6,1,4,7,4,4,TRUE,24857.85999998916,3,5,3,3,FALSE,FALSE
1,4,learned,8,8,5,1,9,1,1,TRUE,26208.719999995083,4,NA,4,4,TRUE,FALSE
1,4,learned,9,11,8,9,12,9,9,TRUE,15155.755000014324,2,3,2,2,FALSE,FALSE
1,4,learned,10,4,9,5,6,5,5,TRUE,43361.4500000258,6,8,6,4,FALSE,FALSE
1,4,learned,11,8,13,10,1,10,1,FALSE,15749.79000003077,3,NA,3,3,TRUE,FALSE
1,4,learned,12,2,11,1,3,1,3,FALSE,10142.685000027996,4,NA,4,4,TRUE,FALSE
1,4,learned,13,1,12,8,2,8,8,TRUE,20913.79500000039,3,NA,3,3,TRUE,FALSE
1,4,learned,14,6,2,4,7,4,4,TRUE,7130.500000028405,2,4,2,2,FALSE,FALSE
1,4,learned,15,3,6,2,5,NA,2,TRUE,9112.695000017991,3,3,3,2,FALSE,TRUE
1,4,learned,16,4,10,3,5,3,3,TRUE,10715.795000025537,5,6,5,4,FALSE,FALSE
1,4,learned,17,2,8,1,3,1,1,TRUE,7804.189999995288,2,NA,2,2,TRUE,FALSE
1,4,learned,18,2,7,4,1,4,4,TRUE,23600.365000020247,3,NA,3,3,TRUE,FALSE
1,4,learned,19,10,3,8,12,8,12,FALSE,11678.650000016203,4,7,4,4,FALSE,FALSE
1,4,learned,20,2,9,1,3,1,1,TRUE,10683.900000003632,3,NA,3,3,TRUE,FALSE
1,4,learned,21,10,13,12,8,12,12,TRUE,15279.849999991711,2,4,2,2,FALSE,FALSE
1,4,learned,22,10,11,12,8,12,12,TRUE,5727.734999964014,2,3,2,2,FALSE,FALSE
1,4,learned,23,3,7,5,4,5,4,FALSE,6517.334999982268,2,3,2,2,FALSE,FALSE
1,4,learned,24,10,9,8,12,8,8,TRUE,19637.339999957476,2,3,2,2,FALSE,FALSE
1,4,learned,25,9,1,8,11,8,8,TRUE,7662.335000000894,2,5,2,2,FALSE,FALSE
1,4,learned,26,4,10,2,5,2,5,FALSE,15245.609999983571,4,6,4,4,FALSE,FALSE
1,4,learned,27,8,4,1,10,1,1,TRUE,28863.88999997871,3,NA,3,3,TRUE,FALSE
1,4,learned,28,12,1,10,13,10,10,TRUE,22042.205000005197,3,5,3,3,FALSE,FALSE
1,4,learned,29,10,1,8,12,8,8,TRUE,8116.225000005215,2,5,2,2,FALSE,FALSE
1,4,learned,30,1,11,8,2,8,8,TRUE,19876.0749999783,3,NA,3,3,TRUE,FALSE
1,4,learned,31,2,7,3,1,3,3,TRUE,8754.610000003595,3,NA,3,3,TRUE,FALSE
1,4,learned,32,4,10,5,6,5,5,TRUE,26471.940000017177,6,8,6,4,FALSE,FALSE
1,4,learned,33,11,1,12,13,12,12,TRUE,29133.635000035167,4,5,4,3,FALSE,FALSE
1,4,learned,34,8,12,10,1,10,10,TRUE,15648.715000018476,2,NA,2,2,TRUE,FALSE
1,4,learned,35,1,13,8,2,8,8,TRUE,28842.795000004586,4,NA,4,4,TRUE,FALSE
1,4,learned,36,7,4,5,6,NA,6,TRUE,6725.195000005886,2,2,2,2,FALSE,TRUE
1,4,learned,37,3,9,2,5,2,2,TRUE,8636.545000015758,4,6,4,4,FALSE,FALSE
1,4,learned,38,4,8,2,3,2,2,TRUE,55353.77999994624,3,4,3,3,FALSE,FALSE
1,4,learned,39,12,2,11,13,11,11,TRUE,19061.715000017542,5,6,5,4,FALSE,FALSE
1,4,learned,40,4,8,5,6,5,5,TRUE,6032.810000004247,5,7,5,3,FALSE,FALSE
1,4,learned,41,5,8,4,7,4,4,TRUE,4011.7150000296538,4,6,4,4,FALSE,FALSE
1,4,learned,42,4,7,5,3,5,5,TRUE,7323.71000002604,2,3,2,2,FALSE,FALSE
1,4,learned,43,2,9,1,4,1,1,TRUE,8722.529999970458,3,NA,3,3,TRUE,FALSE
1,4,learned,44,8,6,1,10,1,1,TRUE,17619.999999995343,4,NA,4,4,TRUE,FALSE
1,4,learned,45,11,1,9,13,9,9,TRUE,18775.520000023767,3,5,3,3,FALSE,FALSE
1,4,learned,46,11,8,9,13,9,9,TRUE,5266.070000012405,2,4,2,2,FALSE,FALSE
1,4,learned,47,11,1,9,12,9,9,TRUE,8427.685000002384,3,4,3,3,FALSE,FALSE
1,4,learned,48,12,1,10,11,10,10,TRUE,16749.894999957643,3,4,3,3,FALSE,FALSE
1,4,learned,49,2,6,4,3,4,4,TRUE,6009.514999983832,2,3,2,2,FALSE,FALSE
1,4,learned,50,12,1,11,13,11,11,TRUE,18598.385000020266,4,5,4,3,FALSE,FALSE
1,4,learned,51,11,2,9,13,9,9,TRUE,28668.98000001721,4,6,4,4,FALSE,FALSE
1,4,learned,52,3,6,4,2,4,4,TRUE,7461.455000040121,2,3,2,2,FALSE,FALSE
1,4,learned,53,1,5,2,8,2,2,TRUE,8048.675000026822,3,NA,3,3,TRUE,FALSE
1,4,learned,54,4,10,2,3,2,3,FALSE,12333.235000027344,4,5,4,4,FALSE,FALSE
1,4,learned,55,8,4,1,9,1,1,TRUE,9265.925000014717,3,NA,3,3,TRUE,FALSE
1,4,learned,56,2,6,3,1,3,3,TRUE,18267.035000026222,3,NA,3,2,TRUE,FALSE
1,4,learned,57,7,2,5,6,NA,5,TRUE,21442.89499998465,3,3,3,3,FALSE,TRUE
1,4,learned,58,12,2,10,11,10,10,TRUE,19001.58000004012,4,5,4,4,FALSE,FALSE
1,4,learned,59,4,1,5,6,5,5,TRUE,6747.644999995828,4,6,4,2,FALSE,FALSE
1,4,learned,60,5,6,4,7,NA,4,TRUE,8913.724999991246,2,2,2,2,FALSE,TRUE
1,4,learned,61,8,11,10,1,10,10,TRUE,8505.614999973215,3,NA,3,2,TRUE,FALSE
1,4,learned,62,12,9,10,13,NA,13,TRUE,8715.459999977611,3,3,3,2,FALSE,TRUE
1,4,learned,63,8,6,1,9,1,1,TRUE,7701.419999998063,4,NA,4,4,TRUE,FALSE
1,4,learned,64,3,10,4,5,4,5,FALSE,15393.120000023397,5,6,5,4,FALSE,FALSE
1,4,learned,65,1,9,8,2,8,8,TRUE,6235.319999977946,2,NA,2,2,TRUE,FALSE
1,4,learned,66,11,10,9,13,NA,13,TRUE,16162.000000011176,3,3,3,2,FALSE,TRUE
1,4,learned,67,11,2,9,12,9,12,FALSE,24553.435000007972,4,5,4,4,FALSE,FALSE
1,4,learned,68,3,1,4,5,4,5,FALSE,7332.194999965839,3,4,3,2,FALSE,FALSE
1,4,learned,69,8,13,9,10,NA,9,TRUE,11667.495000001045,3,3,3,3,FALSE,TRUE
1,4,learned,70,6,8,4,7,4,4,TRUE,15132.745000010356,4,6,4,4,FALSE,FALSE
1,4,learned,71,4,1,2,5,2,2,TRUE,7085.355000047013,2,4,2,2,FALSE,FALSE
1,4,learned,72,2,5,3,1,3,3,TRUE,13059.019999985583,2,NA,2,2,TRUE,FALSE
1,4,learned,73,4,9,2,3,2,2,TRUE,5771.82000002265,4,5,4,4,FALSE,FALSE
1,4,learned,74,4,7,5,2,5,5,TRUE,13423.614999977872,2,4,2,2,FALSE,FALSE
1,4,learned,75,11,10,12,13,12,12,TRUE,32926.01500003319,2,3,2,2,FALSE,FALSE
1,4,learned,76,4,7,3,2,3,3,TRUE,5996.785000025295,3,4,3,2,FALSE,FALSE
1,4,learned,77,5,1,4,7,4,4,TRUE,12354.69000000786,3,5,3,3,FALSE,FALSE
1,4,learned,78,2,10,1,3,1,1,TRUE,8747.73000000231,3,NA,3,3,TRUE,FALSE
1,4,learned,79,5,2,3,4,NA,4,TRUE,13244.405000004916,2,2,2,2,FALSE,TRUE
1,4,learned,80,8,3,1,9,1,1,TRUE,9527.134999983013,3,NA,3,3,TRUE,FALSE
1,4,learned,81,8,13,9,1,9,9,TRUE,6335.484999988228,3,NA,3,3,TRUE,FALSE
1,4,learned,82,4,9,2,5,2,2,TRUE,8376.675000007264,4,6,4,4,FALSE,FALSE
1,4,learned,83,3,7,5,2,5,5,TRUE,6967.735000013374,2,4,2,2,FALSE,FALSE
1,4,learned,84,4,1,2,6,2,2,TRUE,5437.879999983124,2,6,2,2,FALSE,FALSE
1,4,learned,85,9,4,8,11,8,8,TRUE,23434.92999998853,4,7,4,4,FALSE,FALSE
1,4,learned,86,2,5,3,4,NA,4,TRUE,8228.635000006296,2,2,2,2,FALSE,TRUE
1,4,learned,87,3,8,4,5,4,5,FALSE,11453.7450000057,4,5,4,3,FALSE,FALSE
1,4,learned,88,1,3,2,8,2,2,TRUE,5100.97999998834,2,NA,2,2,TRUE,FALSE
1,4,learned,89,5,1,3,7,3,3,TRUE,7151.659999974072,3,5,3,3,FALSE,FALSE
1,4,learned,90,13,8,11,12,NA,11,TRUE,25048.65999997128,3,3,3,3,FALSE,TRUE
1,4,learned,91,8,5,1,10,1,1,TRUE,13790.154999994673,4,NA,4,4,TRUE,FALSE
1,4,learned,92,4,9,3,5,3,3,TRUE,5379.675000033341,5,6,5,4,FALSE,FALSE
1,4,learned,93,3,10,2,4,2,2,TRUE,8049.664999999106,4,5,4,4,FALSE,FALSE
1,4,learned,94,12,8,10,11,10,11,FALSE,8030.825000023469,2,3,2,2,FALSE,FALSE
1,4,learned,95,4,10,2,6,2,2,TRUE,6205.324999988079,4,8,4,4,FALSE,FALSE
1,4,learned,96,11,8,12,13,12,12,TRUE,29776.954999949783,3,4,3,2,FALSE,FALSE
1,4,learned,97,10,4,8,12,8,8,TRUE,6635.73500001803,4,7,4,4,FALSE,FALSE
1,4,learned,98,13,10,12,11,12,12,TRUE,20636.63500000164,2,3,2,2,FALSE,FALSE
1,4,learned,99,3,9,4,5,4,5,FALSE,4535.789999994449,5,6,5,4,FALSE,FALSE
1,4,learned,100,4,1,2,3,2,2,TRUE,4473.245000001043,2,3,2,2,FALSE,FALSE
1,4,learned,101,4,10,3,6,3,3,TRUE,2871.4649999756366,5,8,5,4,FALSE,FALSE
1,4,learned,102,2,5,4,1,4,4,TRUE,6117.659999988973,2,NA,2,2,TRUE,FALSE
1,4,learned,103,13,1,11,12,NA,11,TRUE,11744.675000023097,4,4,4,4,FALSE,TRUE
1,4,learned,104,12,9,11,10,11,11,TRUE,3085.234999948181,2,3,2,2,FALSE,FALSE
1,4,learned,105,8,2,1,10,1,1,TRUE,8310.240000020713,2,NA,2,2,TRUE,FALSE
1,4,learned,106,8,11,9,1,9,9,TRUE,6807.495000015013,2,NA,2,2,TRUE,FALSE
1,4,learned,107,4,8,3,6,3,3,TRUE,3555.295000027865,4,7,4,3,FALSE,FALSE
1,4,learned,108,9,3,8,11,8,8,TRUE,6740.664999989793,4,7,4,4,FALSE,FALSE
1,4,learned,109,12,8,11,13,11,11,TRUE,10513.809999974445,3,4,3,2,FALSE,FALSE
1,4,learned,110,9,10,8,11,8,8,TRUE,6185.660000017844,2,3,2,2,FALSE,FALSE
1,4,learned,111,1,4,2,8,2,2,TRUE,5274.9199999962,2,NA,2,2,TRUE,FALSE
1,4,learned,112,4,9,2,6,2,2,TRUE,5103.665000002831,4,8,4,4,FALSE,FALSE
1,4,learned,113,9,12,11,8,11,11,TRUE,9585.919999983162,2,3,2,2,FALSE,FALSE
1,4,learned,114,1,10,8,2,8,8,TRUE,8936.494999972172,2,NA,2,2,TRUE,FALSE
1,4,learned,115,6,3,4,7,4,4,TRUE,6086.104999994859,2,3,2,2,FALSE,FALSE
1,4,learned,116,8,12,9,1,9,9,TRUE,8240.414999948815,3,NA,3,2,TRUE,FALSE
1,4,learned,117,1,6,2,8,2,2,TRUE,4580.560000031255,3,NA,3,3,TRUE,FALSE
1,4,learned,118,2,8,1,4,1,1,TRUE,10643.730000011625,2,NA,2,2,TRUE,FALSE
1,4,learned,119,3,7,4,2,4,4,TRUE,4005.4749999539927,3,4,3,2,FALSE,FALSE
1,4,learned,120,7,3,5,6,5,5,TRUE,4943.024999986403,2,3,2,2,FALSE,FALSE
1,4,learned,121,5,6,7,3,7,7,TRUE,4839.440000010654,2,3,2,2,FALSE,FALSE
1,4,learned,122,2,12,1,3,1,1,TRUE,8870.854999985546,4,NA,4,4,TRUE,FALSE
1,4,learned,123,5,6,4,3,4,4,TRUE,6351.725000014529,2,3,2,2,FALSE,FALSE
1,4,learned,124,2,12,1,4,1,1,TRUE,6202.769999974407,4,NA,4,4,TRUE,FALSE
1,4,learned,125,4,8,3,5,3,5,FALSE,11605.555000016466,4,5,4,3,FALSE,FALSE
1,4,learned,126,2,10,1,4,1,1,TRUE,12819.52999997884,3,NA,3,3,TRUE,FALSE
1,4,learned,127,11,10,12,9,12,12,TRUE,4937.519999977201,2,3,2,2,FALSE,FALSE
1,4,learned,128,5,2,4,7,4,4,TRUE,5631.240000016987,2,4,2,2,FALSE,FALSE
1,4,learned,129,2,11,1,4,1,1,TRUE,8691.845000023022,4,NA,4,4,TRUE,FALSE
1,4,learned,130,3,6,4,5,4,4,TRUE,2940.7450000289828,2,3,2,2,FALSE,FALSE
1,4,learned,131,12,9,11,13,11,11,TRUE,7427.945000004023,2,3,2,2,FALSE,FALSE
1,4,learned,132,13,9,11,12,11,11,TRUE,4777.204999991693,2,3,2,2,FALSE,FALSE
1,4,learned,133,4,1,3,5,3,5,FALSE,6157.330000016838,3,4,3,2,FALSE,FALSE
1,4,learned,134,5,8,3,4,NA,3,TRUE,5631.739999981597,4,4,4,4,FALSE,TRUE
1,4,learned,135,4,1,3,6,3,3,TRUE,6905.28000000678,3,6,3,2,FALSE,FALSE
1,4,learned,136,2,6,4,1,4,4,TRUE,3285.4299999894574,2,NA,2,2,TRUE,FALSE
1,4,learned,137,4,7,6,3,6,6,TRUE,7552.72999999579,2,3,2,2,FALSE,FALSE
1,4,learned,138,3,9,2,4,2,2,TRUE,8240.960000024177,4,5,4,4,FALSE,FALSE
1,4,learned,139,7,1,5,6,NA,5,TRUE,10307.629999995232,4,4,4,4,FALSE,TRUE
1,4,learned,140,5,1,3,4,NA,4,TRUE,13233.449999999257,3,3,3,3,FALSE,TRUE
1,4,learned,141,8,3,1,10,1,1,TRUE,5728.345000009984,3,NA,3,3,TRUE,FALSE
1,4,learned,142,4,7,5,6,NA,6,TRUE,2489.784999983385,2,2,2,2,FALSE,TRUE
1,4,learned,143,3,10,2,5,2,2,TRUE,8116.814999956638,4,6,4,4,FALSE,FALSE
1,4,learned,144,6,5,4,7,NA,4,TRUE,3495.714999968186,2,2,2,2,FALSE,TRUE
1,4,learned,145,4,7,6,2,6,6,TRUE,4685.375,2,4,2,2,FALSE,FALSE
1,4,learned,146,12,2,10,13,10,10,TRUE,18608.89999999199,4,6,4,4,FALSE,FALSE
1,4,learned,147,10,2,8,12,8,8,TRUE,10971.474999969823,3,6,3,3,FALSE,FALSE
1,4,learned,148,3,8,2,4,2,2,TRUE,4197.324999957345,3,4,3,3,FALSE,FALSE
1,4,learned,149,4,8,2,5,2,2,TRUE,3463.820000004954,3,5,3,3,FALSE,FALSE
1,4,learned,150,1,7,2,8,2,8,FALSE,8312.919999997132,4,NA,4,4,TRUE,FALSE
1,4,learned,151,3,8,2,5,2,2,TRUE,6831.149999983609,3,5,3,3,FALSE,FALSE
1,4,learned,152,8,11,9,10,9,9,TRUE,7536.064999992028,2,3,2,2,FALSE,FALSE
1,4,learned,153,9,13,11,8,11,11,TRUE,8333.840000036173,2,4,2,2,FALSE,FALSE
1,4,learned,154,9,2,8,11,8,8,TRUE,5660.2249999996275,3,6,3,3,FALSE,FALSE
1,4,learned,155,4,9,3,6,3,3,TRUE,3777.675000019371,5,8,5,4,FALSE,FALSE
1,4,learned,156,2,7,3,4,NA,4,TRUE,8244.790000025183,3,3,3,3,FALSE,TRUE
1,4,learned,157,5,8,3,7,3,3,TRUE,4879.3650000002235,4,6,4,4,FALSE,FALSE
1,4,learned,158,5,2,3,7,3,3,TRUE,4590.774999990128,2,4,2,2,FALSE,FALSE
1,4,learned,159,12,8,10,13,10,10,TRUE,5625.979999953881,2,4,2,2,FALSE,FALSE
1,5,learned,1,8,2,1,9,1,1,TRUE,3313.270000042394,2,NA,2,2,TRUE,FALSE
1,5,learned,2,4,8,3,5,3,3,TRUE,10267.86500000162,4,5,4,3,FALSE,FALSE
1,5,learned,3,5,2,3,4,NA,4,TRUE,7607.080000045244,2,2,2,2,FALSE,TRUE
1,5,learned,4,4,7,5,2,5,5,TRUE,3025.6700000027195,2,4,2,2,FALSE,FALSE
1,5,learned,5,2,11,1,3,1,3,FALSE,5305.694999988191,4,NA,4,4,TRUE,FALSE
1,5,learned,6,4,9,3,6,3,3,TRUE,3058.584999991581,5,8,5,4,FALSE,FALSE
1,5,learned,7,9,1,8,11,8,8,TRUE,10130.36499998998,2,5,2,2,FALSE,FALSE
1,5,learned,8,13,8,11,12,NA,11,TRUE,15968.73499994399,3,3,3,3,FALSE,TRUE
1,5,learned,9,3,8,2,4,2,2,TRUE,20407.21500001382,3,4,3,3,FALSE,FALSE
1,5,learned,10,12,1,10,13,10,10,TRUE,14217.614999972284,3,5,3,3,FALSE,FALSE
1,5,learned,11,4,10,3,5,3,3,TRUE,19065.01500000013,5,6,5,4,FALSE,FALSE
1,5,learned,12,4,8,3,6,3,3,TRUE,20307.005000009667,4,7,4,3,FALSE,FALSE
1,5,learned,13,3,6,4,2,4,4,TRUE,2424.479999986943,2,3,2,2,FALSE,FALSE
1,5,learned,14,9,4,8,11,8,8,TRUE,8267.129999992903,4,7,4,4,FALSE,FALSE
1,5,learned,15,10,2,8,12,8,8,TRUE,8484.164999972563,3,6,3,3,FALSE,FALSE
1,5,learned,16,2,7,3,1,3,3,TRUE,6113.720000023022,3,NA,3,3,TRUE,FALSE
1,5,learned,17,3,9,4,5,4,4,TRUE,15371.299999998882,5,6,5,4,FALSE,FALSE
1,5,learned,18,12,9,11,10,11,11,TRUE,3956.319999997504,2,3,2,2,FALSE,FALSE
1,5,learned,19,5,6,4,3,4,4,TRUE,2603.530000022147,2,3,2,2,FALSE,FALSE
1,5,learned,20,6,1,4,7,4,4,TRUE,4078.8099999772385,3,5,3,3,FALSE,FALSE
1,5,learned,21,3,9,2,5,2,2,TRUE,14218.764999997802,4,6,4,4,FALSE,FALSE
1,5,learned,22,11,2,9,13,9,9,TRUE,42563.88500001049,4,6,4,4,FALSE,FALSE
1,5,learned,23,8,3,1,9,1,1,TRUE,7821.750000002794,3,NA,3,3,TRUE,FALSE
1,5,learned,24,11,8,9,12,9,9,TRUE,8827.395000029355,2,3,2,2,FALSE,FALSE
1,5,learned,25,4,7,6,3,6,6,TRUE,3194.855000008829,2,3,2,2,FALSE,FALSE
1,5,learned,26,4,1,2,5,2,2,TRUE,10378.41499998467,2,4,2,2,FALSE,FALSE
1,5,learned,27,9,3,8,11,8,8,TRUE,12800.684999965595,4,7,4,4,FALSE,FALSE
1,5,learned,28,1,13,8,2,8,8,TRUE,20917.515000037383,4,NA,4,4,TRUE,FALSE
1,5,learned,29,4,9,2,3,2,2,TRUE,15015.145000012126,4,5,4,4,FALSE,FALSE
1,5,learned,30,9,13,11,8,11,11,TRUE,4332.779999997001,2,4,2,2,FALSE,FALSE
1,5,learned,31,4,8,2,3,2,2,TRUE,23241.990000009537,3,4,3,3,FALSE,FALSE
1,5,learned,32,3,7,5,4,5,5,TRUE,4757.385000004433,2,3,2,2,FALSE,FALSE
1,5,learned,33,4,7,3,2,3,3,TRUE,8109.080000023823,3,4,3,2,FALSE,FALSE
1,5,learned,34,4,1,3,6,3,3,TRUE,4677.354999992531,3,6,3,2,FALSE,FALSE
1,5,learned,35,11,1,12,13,12,12,TRUE,14864.895000006072,4,5,4,3,FALSE,FALSE
1,5,learned,36,2,6,4,1,4,4,TRUE,2419.6549999760464,2,NA,2,2,TRUE,FALSE
1,5,learned,37,8,5,1,10,1,1,TRUE,4803.1949999858625,4,NA,4,4,TRUE,FALSE
1,5,learned,38,3,10,2,4,2,2,TRUE,6708.035000017844,4,5,4,4,FALSE,FALSE
1,5,learned,39,7,4,5,6,NA,6,TRUE,3962.589999951888,2,2,2,2,FALSE,TRUE
1,5,learned,40,11,8,12,13,12,12,TRUE,9803.35499998182,3,4,3,2,FALSE,FALSE
1,5,learned,41,11,2,12,13,12,12,TRUE,6807.850000041071,5,6,5,4,FALSE,FALSE
1,5,learned,42,4,1,2,6,2,2,TRUE,5117.789999989327,2,6,2,2,FALSE,FALSE
1,5,learned,43,12,2,10,13,10,10,TRUE,14393.555000016931,4,6,4,4,FALSE,FALSE
1,5,learned,44,3,7,4,2,4,4,TRUE,7528.510000032838,3,4,3,2,FALSE,FALSE
1,5,learned,45,13,1,11,12,NA,11,TRUE,9333.144999982323,4,4,4,4,FALSE,TRUE
1,5,learned,46,12,8,11,13,11,11,TRUE,10898.999999975786,3,4,3,2,FALSE,FALSE
1,5,learned,47,11,10,9,13,NA,9,TRUE,6114.620000007562,3,3,3,2,FALSE,TRUE
1,5,learned,48,5,8,4,7,4,4,TRUE,14338.075000036042,4,6,4,4,FALSE,FALSE
1,5,learned,49,3,1,4,5,4,5,FALSE,14531.019999994896,3,4,3,2,FALSE,FALSE
1,5,learned,50,12,1,11,13,11,11,TRUE,7318.585000000894,4,5,4,3,FALSE,FALSE
1,5,learned,51,8,2,1,10,1,1,TRUE,8550.969999982044,2,NA,2,2,TRUE,FALSE
1,5,learned,52,3,7,5,2,5,5,TRUE,1706.235000048764,2,4,2,2,FALSE,FALSE
1,5,learned,53,4,10,2,3,2,2,TRUE,14360.134999966249,4,5,4,4,FALSE,FALSE
1,5,learned,54,4,7,5,3,5,5,TRUE,4535.570000007283,2,3,2,2,FALSE,FALSE
1,5,learned,55,6,3,4,7,4,4,TRUE,5323.16000002902,2,3,2,2,FALSE,FALSE
1,5,learned,56,3,10,4,5,4,4,TRUE,21414.935000007972,5,6,5,4,FALSE,FALSE
1,5,learned,57,2,5,3,4,NA,3,TRUE,4324.755000008736,2,2,2,2,FALSE,TRUE
1,5,learned,58,8,11,10,1,10,1,FALSE,4166.154999984428,3,NA,3,2,TRUE,FALSE
1,5,learned,59,8,12,10,9,10,10,TRUE,4259.650000021793,2,3,2,2,FALSE,FALSE
1,5,learned,60,12,9,11,13,11,11,TRUE,2523.7450000131503,2,3,2,2,FALSE,FALSE
1,5,learned,61,2,7,4,1,4,4,TRUE,4227.985000004992,3,NA,3,3,TRUE,FALSE
1,5,learned,62,4,9,3,5,3,3,TRUE,5852.360000018962,5,6,5,4,FALSE,FALSE
1,5,learned,63,11,10,12,13,12,12,TRUE,3496.289999980945,2,3,2,2,FALSE,FALSE
1,5,learned,64,10,9,8,12,8,8,TRUE,3101.864999975078,2,3,2,2,FALSE,FALSE
1,5,learned,65,8,5,1,9,1,1,TRUE,5929.754999990109,4,NA,4,4,TRUE,FALSE
1,5,learned,66,1,9,8,2,8,8,TRUE,2883.8149999501184,2,NA,2,2,TRUE,FALSE
1,5,learned,67,4,10,2,6,2,2,TRUE,2595.720000041183,4,8,4,4,FALSE,FALSE
1,5,learned,68,12,2,10,11,10,10,TRUE,9967.780000006314,4,5,4,4,FALSE,FALSE
1,5,learned,69,10,11,12,8,12,12,TRUE,3221.529999980703,2,3,2,2,FALSE,FALSE
1,5,learned,70,2,9,1,3,1,1,TRUE,6053.639999998268,3,NA,3,3,TRUE,FALSE
1,5,learned,71,8,12,10,1,10,10,TRUE,4502.585000009276,2,NA,2,2,TRUE,FALSE
1,5,learned,72,8,13,9,10,NA,10,TRUE,4525.900000007823,3,3,3,3,FALSE,TRUE
1,5,learned,73,3,1,2,4,2,2,TRUE,9666.725000017324,2,3,2,2,FALSE,FALSE
1,5,learned,74,1,11,8,2,8,8,TRUE,4679.694999998901,3,NA,3,3,TRUE,FALSE
1,5,learned,75,1,3,2,8,2,2,TRUE,3246.0149999824353,2,NA,2,2,TRUE,FALSE
1,5,learned,76,8,13,10,1,10,10,TRUE,2482.7749999822117,3,NA,3,3,TRUE,FALSE
1,5,learned,77,3,10,2,5,2,2,TRUE,11054.935000021942,4,6,4,4,FALSE,FALSE
1,5,learned,78,4,1,2,3,2,2,TRUE,9912.735000019891,2,3,2,2,FALSE,FALSE
1,5,learned,79,3,9,2,4,2,2,TRUE,15828.404999978377,4,5,4,4,FALSE,FALSE
1,5,learned,80,8,3,1,10,1,1,TRUE,20571.94500003243,3,NA,3,3,TRUE,FALSE
1,5,learned,81,4,9,2,5,2,2,TRUE,7049.67499995837,4,6,4,4,FALSE,FALSE
1,5,learned,82,11,8,9,13,9,13,FALSE,13137.815000023693,2,4,2,2,FALSE,FALSE
1,5,learned,83,5,2,4,7,4,4,TRUE,2851.525000005495,2,4,2,2,FALSE,FALSE
1,5,learned,84,3,8,2,5,2,2,TRUE,4487.139999982901,3,5,3,3,FALSE,FALSE
1,5,learned,85,7,1,5,6,NA,5,TRUE,4168.18500001682,4,4,4,4,FALSE,TRUE
1,5,learned,86,4,8,2,6,2,2,TRUE,2714.589999988675,3,7,3,3,FALSE,FALSE
1,5,learned,87,10,13,12,8,12,12,TRUE,3743.895000021439,2,4,2,2,FALSE,FALSE
1,5,learned,88,2,11,1,4,1,1,TRUE,4244.735000014771,4,NA,4,4,TRUE,FALSE
1,5,learned,89,4,10,5,6,5,5,TRUE,5509.4150000368245,6,8,6,4,FALSE,FALSE
1,5,learned,90,8,11,9,1,9,9,TRUE,4046.404999971855,2,NA,2,2,TRUE,FALSE
1,5,learned,91,9,10,8,11,8,8,TRUE,4515.765000018291,2,3,2,2,FALSE,FALSE
1,5,learned,92,1,7,2,8,2,2,TRUE,6013.90000001993,4,NA,4,4,TRUE,FALSE
1,5,learned,93,2,5,4,1,4,4,TRUE,3393.7949999817647,2,NA,2,2,TRUE,FALSE
1,5,learned,94,2,9,1,4,1,1,TRUE,5320.80499996664,3,NA,3,3,TRUE,FALSE
1,5,learned,95,8,6,1,9,1,1,TRUE,11346.900000004098,4,NA,4,4,TRUE,FALSE
1,5,learned,96,7,3,5,6,5,5,TRUE,2154.43499997491,2,3,2,2,FALSE,FALSE
1,5,learned,97,9,2,8,11,8,8,TRUE,5900.200000032783,3,6,3,3,FALSE,FALSE
1,5,learned,98,10,1,8,12,8,8,TRUE,2875.7650000043213,2,5,2,2,FALSE,FALSE
1,5,learned,99,13,10,12,11,12,12,TRUE,3962.844999972731,2,3,2,2,FALSE,FALSE
1,5,learned,100,1,4,2,8,2,2,TRUE,3797.0100000384264,2,NA,2,2,TRUE,FALSE
1,5,learned,101,4,1,5,6,5,5,TRUE,5323.459999985062,4,6,4,2,FALSE,FALSE
1,5,learned,102,2,12,1,4,1,1,TRUE,5586.5450000273995,4,NA,4,4,TRUE,FALSE
1,5,learned,103,8,12,9,1,9,9,TRUE,9636.8000000366,3,NA,3,2,TRUE,FALSE
1,5,learned,104,6,2,4,7,4,4,TRUE,4302.185000036843,2,4,2,2,FALSE,FALSE
1,5,learned,105,5,6,4,7,NA,7,TRUE,3117.659999988973,2,2,2,2,FALSE,TRUE
1,5,learned,106,10,3,8,12,8,8,TRUE,7097.574999963399,4,7,4,4,FALSE,FALSE
1,5,learned,107,12,8,10,11,10,11,FALSE,3239.095000026282,2,3,2,2,FALSE,FALSE
1,5,learned,108,2,5,3,1,3,3,TRUE,7693.0649999994785,2,NA,2,2,TRUE,FALSE
1,5,learned,109,13,9,11,12,11,11,TRUE,1982.480000006035,2,3,2,2,FALSE,FALSE
1,5,learned,110,10,4,8,12,8,8,TRUE,5399.065000005066,4,7,4,4,FALSE,FALSE
1,5,learned,111,2,8,1,4,1,1,TRUE,4143.44000001438,2,NA,2,2,TRUE,FALSE
1,5,learned,112,11,1,9,12,9,9,TRUE,1954.410000005737,3,4,3,3,FALSE,FALSE
1,5,learned,113,2,8,1,3,1,1,TRUE,3549.799999978859,2,NA,2,2,TRUE,FALSE
1,5,learned,114,4,10,3,6,3,3,TRUE,1995.8500000066124,5,8,5,4,FALSE,FALSE
1,5,learned,115,8,4,1,10,1,1,TRUE,10573.86999996379,3,NA,3,3,TRUE,FALSE
1,5,learned,116,1,6,2,8,2,2,TRUE,4037.739999999758,3,NA,3,3,TRUE,FALSE
1,5,learned,117,4,9,5,6,5,5,TRUE,5209.685000008903,6,8,6,4,FALSE,FALSE
1,5,learned,118,5,1,4,7,4,4,TRUE,5474.770000029821,3,5,3,3,FALSE,FALSE
1,5,learned,119,8,11,9,10,9,9,TRUE,2662.3949999921024,2,3,2,2,FALSE,FALSE
1,5,learned,120,2,10,1,4,1,1,TRUE,16125.93999999808,3,NA,3,3,TRUE,FALSE
1,5,learned,121,4,8,5,6,5,5,TRUE,8586.45499998238,5,7,5,3,FALSE,FALSE
1,5,learned,122,1,12,8,2,8,8,TRUE,4483.370000030845,3,NA,3,3,TRUE,FALSE
1,5,learned,123,4,7,5,6,NA,6,TRUE,4061.0649999580346,2,2,2,2,FALSE,TRUE
1,5,learned,124,3,6,4,5,4,4,TRUE,1480.3550000069663,2,3,2,2,FALSE,FALSE
1,5,learned,125,1,10,8,2,8,8,TRUE,2877.44000001112,2,NA,2,2,TRUE,FALSE
1,5,learned,126,5,6,7,3,7,7,TRUE,1486.5850000060163,2,3,2,2,FALSE,FALSE
1,5,learned,127,2,6,4,3,4,4,TRUE,1270.190000010189,2,3,2,2,FALSE,FALSE
1,5,learned,128,4,9,2,6,2,2,TRUE,2062.394999957178,4,8,4,4,FALSE,FALSE
1,5,learned,129,11,2,9,12,9,9,TRUE,4753.785000008065,4,5,4,4,FALSE,FALSE
1,5,learned,130,11,1,9,13,9,9,TRUE,12956.98999997694,3,5,3,3,FALSE,FALSE
1,5,learned,131,6,8,4,7,4,4,TRUE,3121.3299999944866,4,6,4,4,FALSE,FALSE
1,5,learned,132,2,10,1,3,1,1,TRUE,5899.114999978337,3,NA,3,3,TRUE,FALSE
1,5,learned,133,1,5,2,8,2,2,TRUE,2657.0499999797903,3,NA,3,3,TRUE,FALSE
1,5,learned,134,4,8,2,5,2,2,TRUE,11973.059999989346,3,5,3,3,FALSE,FALSE
1,5,learned,135,4,7,6,2,6,6,TRUE,1432.594999962021,2,4,2,2,FALSE,FALSE
1,5,learned,136,4,1,3,5,3,3,TRUE,2408.034999971278,3,4,3,2,FALSE,FALSE
1,5,learned,137,7,2,5,6,NA,5,TRUE,6010.845000040717,3,3,3,3,FALSE,TRUE
1,5,learned,138,4,10,2,5,2,2,TRUE,13419.340000022205,4,6,4,4,FALSE,FALSE
1,5,learned,139,8,6,1,10,1,1,TRUE,2862.5100000062957,4,NA,4,4,TRUE,FALSE
1,5,learned,140,3,8,4,5,4,4,TRUE,7249.240000033751,4,5,4,3,FALSE,FALSE
1,5,learned,141,5,1,3,7,3,3,TRUE,6395.335000008345,3,5,3,3,FALSE,FALSE
1,5,learned,142,2,7,3,4,NA,4,TRUE,1522.8349999524653,3,3,3,3,FALSE,TRUE
1,5,learned,143,12,8,10,13,10,10,TRUE,5630.665000004228,2,4,2,2,FALSE,FALSE
1,5,learned,144,8,4,1,9,1,1,TRUE,4368.77000000095,3,NA,3,3,TRUE,FALSE
1,5,learned,145,3,1,2,5,2,2,TRUE,2638.4750000433996,2,4,2,2,FALSE,FALSE
1,5,learned,146,5,8,3,4,NA,4,TRUE,5216.174999950454,4,4,4,4,FALSE,TRUE
1,5,learned,147,2,12,1,3,1,1,TRUE,5674.219999986235,4,NA,4,4,TRUE,FALSE
1,5,learned,148,8,13,9,1,9,9,TRUE,7823.644999996759,3,NA,3,3,TRUE,FALSE
1,5,learned,149,12,1,10,11,10,11,FALSE,6187.804999994114,3,4,3,3,FALSE,FALSE
1,5,learned,150,5,1,3,4,NA,4,TRUE,8253.595000016503,3,3,3,3,FALSE,TRUE
1,5,learned,151,5,2,3,7,3,3,TRUE,7874.955000006594,2,4,2,2,FALSE,FALSE
1,5,learned,152,5,8,3,7,3,3,TRUE,6052.824999962468,4,6,4,4,FALSE,FALSE
1,5,learned,153,11,10,12,9,12,12,TRUE,1955.009999976028,2,3,2,2,FALSE,FALSE
1,5,learned,154,2,6,3,1,3,3,TRUE,4147.02999999281,3,NA,3,2,TRUE,FALSE
1,5,learned,155,3,6,2,5,NA,5,TRUE,6958.6550000240095,3,3,3,2,FALSE,TRUE
1,5,learned,156,9,12,11,8,11,11,TRUE,4405.9049999923445,2,3,2,2,FALSE,FALSE
1,5,learned,157,12,9,10,13,NA,13,TRUE,4314.624999999069,3,3,3,2,FALSE,TRUE
1,5,learned,158,12,2,11,13,11,11,TRUE,11998.43499995768,5,6,5,4,FALSE,FALSE
1,5,learned,159,6,5,4,7,NA,7,TRUE,6272.250000038184,2,2,2,2,FALSE,TRUE
1,6,learned,1,3,9,2,5,2,5,FALSE,15173.669999989215,4,6,4,4,FALSE,FALSE
1,6,learned,2,8,13,9,10,NA,10,TRUE,17339.529999997467,3,3,3,3,FALSE,TRUE
1,6,learned,3,4,10,2,5,2,2,TRUE,16817.609999969136,4,6,4,4,FALSE,FALSE
1,6,learned,4,2,8,1,3,1,1,TRUE,12817.559999995863,2,NA,2,2,TRUE,FALSE
1,6,learned,5,4,9,3,6,3,3,TRUE,31845.54000000935,5,8,5,4,FALSE,FALSE
1,6,learned,6,1,3,2,8,2,2,TRUE,3787.695000006352,2,NA,2,2,TRUE,FALSE
1,6,learned,7,2,6,3,1,3,3,TRUE,14613.815000047907,3,NA,3,2,TRUE,FALSE
1,6,learned,8,8,13,10,1,10,10,TRUE,7778.920000011567,3,NA,3,3,TRUE,FALSE
1,6,learned,9,4,7,3,2,3,2,FALSE,22477.799999993294,3,4,3,2,FALSE,FALSE
1,6,learned,10,3,8,2,5,2,2,TRUE,8880.729999975301,3,5,3,3,FALSE,FALSE
1,6,learned,11,2,8,1,4,1,1,TRUE,3991.824999975506,2,NA,2,2,TRUE,FALSE
1,6,learned,12,8,11,9,10,9,9,TRUE,5742.809999966994,2,3,2,2,FALSE,FALSE
1,6,learned,13,8,5,1,10,1,10,FALSE,6963.739999977406,4,NA,4,4,TRUE,FALSE
1,6,learned,14,11,10,12,9,12,12,TRUE,4438.859999994747,2,3,2,2,FALSE,FALSE
1,6,learned,15,8,13,9,1,9,9,TRUE,4113.475000020117,3,NA,3,3,TRUE,FALSE
1,6,learned,16,3,1,2,4,2,2,TRUE,2002.7349999872968,2,3,2,2,FALSE,FALSE
1,6,learned,17,13,8,11,12,NA,12,TRUE,5188.629999989644,3,3,3,3,FALSE,TRUE
1,6,learned,18,4,10,2,3,2,2,TRUE,37281.470000045374,4,5,4,4,FALSE,FALSE
1,6,learned,19,5,1,3,7,3,3,TRUE,16460.70499997586,3,5,3,3,FALSE,FALSE
1,6,learned,20,6,1,4,7,4,4,TRUE,14844.054999994114,3,5,3,3,FALSE,FALSE
1,6,learned,21,2,7,4,1,4,4,TRUE,8526.825000008103,3,NA,3,3,TRUE,FALSE
1,6,learned,22,1,11,8,2,8,2,FALSE,10963.864999997895,3,NA,3,3,TRUE,FALSE
1,6,learned,23,8,3,1,10,1,1,TRUE,6984.794999996666,3,NA,3,3,TRUE,FALSE
1,6,learned,24,3,8,4,5,4,4,TRUE,27798.995000019204,4,5,4,3,FALSE,FALSE
1,6,learned,25,4,1,2,6,2,2,TRUE,3388.405000034254,2,6,2,2,FALSE,FALSE
1,6,learned,26,7,1,5,6,NA,5,TRUE,15406.27500001574,4,4,4,4,FALSE,TRUE
1,6,learned,27,12,2,10,13,10,10,TRUE,4567.975000012666,4,6,4,4,FALSE,FALSE
1,6,learned,28,8,12,10,1,10,10,TRUE,8844.684999960009,2,NA,2,2,TRUE,FALSE
1,6,learned,29,4,7,5,3,5,5,TRUE,4641.460000013467,2,3,2,2,FALSE,FALSE
1,6,learned,30,4,9,2,3,2,2,TRUE,7139.495000010356,4,5,4,4,FALSE,FALSE
1,6,learned,31,6,5,4,7,NA,7,TRUE,10082.22999999998,2,2,2,2,FALSE,TRUE
1,6,learned,32,2,7,3,1,3,3,TRUE,11735.760000010489,3,NA,3,3,TRUE,FALSE
1,6,learned,33,4,7,6,2,6,6,TRUE,6936.734999995679,2,4,2,2,FALSE,FALSE
1,6,learned,34,1,13,8,2,8,8,TRUE,11504.009999975096,4,NA,4,4,TRUE,FALSE
1,6,learned,35,3,7,5,2,5,5,TRUE,3557.700000004843,2,4,2,2,FALSE,FALSE
1,6,learned,36,2,9,1,4,1,4,FALSE,15728.684999980032,3,NA,3,3,TRUE,FALSE
1,6,learned,37,13,9,11,12,11,11,TRUE,10259.829999995418,2,3,2,2,FALSE,FALSE
1,6,learned,38,8,4,1,9,1,1,TRUE,10732.789999980014,3,NA,3,3,TRUE,FALSE
1,6,learned,39,9,13,11,8,11,11,TRUE,5332.605000003241,2,4,2,2,FALSE,FALSE
1,6,learned,40,4,1,5,6,5,5,TRUE,9977.86000004271,4,6,4,2,FALSE,FALSE
1,6,learned,41,4,10,2,6,2,2,TRUE,6193.644999992102,4,8,4,4,FALSE,FALSE
1,6,learned,42,7,4,5,6,NA,6,TRUE,5172.4499999545515,2,2,2,2,FALSE,TRUE
1,6,learned,43,1,4,2,8,2,2,TRUE,4151.064999983646,2,NA,2,2,TRUE,FALSE
1,6,learned,44,9,3,8,11,8,8,TRUE,6326.669999980368,4,7,4,4,FALSE,FALSE
1,6,learned,45,8,3,1,9,1,1,TRUE,12326.954999996817,3,NA,3,3,TRUE,FALSE
1,6,learned,46,8,2,1,9,1,1,TRUE,4245.490000001155,2,NA,2,2,TRUE,FALSE
1,6,learned,47,2,5,4,1,4,4,TRUE,6417.499999981374,2,NA,2,2,TRUE,FALSE
1,6,learned,48,5,8,4,7,4,7,FALSE,8519.860000000335,4,6,4,4,FALSE,FALSE
1,6,learned,49,11,10,12,13,12,13,FALSE,11238.499999977648,2,3,2,2,FALSE,FALSE
1,6,learned,50,4,8,3,5,3,5,FALSE,20451.699999975972,4,5,4,3,FALSE,FALSE
1,6,learned,51,13,1,11,12,NA,11,TRUE,8113.2399999769405,4,4,4,4,FALSE,TRUE
1,6,learned,52,8,11,10,1,10,10,TRUE,19975.37000000011,3,NA,3,2,TRUE,FALSE
1,6,learned,53,3,1,4,5,4,4,TRUE,15535.73000000324,3,4,3,2,FALSE,FALSE
1,6,learned,54,9,1,8,11,8,8,TRUE,4769.750000035856,2,5,2,2,FALSE,FALSE
1,6,learned,55,12,9,11,10,11,11,TRUE,8133.785000012722,2,3,2,2,FALSE,FALSE
1,6,learned,56,3,10,2,5,2,5,FALSE,6666.674999985844,4,6,4,4,FALSE,FALSE
1,6,learned,57,8,11,9,1,9,9,TRUE,16998.644999985117,2,NA,2,2,TRUE,FALSE
1,6,learned,58,2,12,1,4,1,4,FALSE,12697.890000010377,4,NA,4,4,TRUE,FALSE
1,6,learned,59,12,8,10,13,10,13,FALSE,8564.66500001261,2,4,2,2,FALSE,FALSE
1,6,learned,60,12,8,11,13,11,11,TRUE,10188.64000000758,3,4,3,2,FALSE,FALSE
1,6,learned,61,12,1,10,11,10,11,FALSE,16649.649999977555,3,4,3,3,FALSE,FALSE
1,6,learned,62,1,7,2,8,2,2,TRUE,11603.29499997897,4,NA,4,4,TRUE,FALSE
1,6,learned,63,3,10,4,5,4,5,FALSE,5063.429999980144,5,6,5,4,FALSE,FALSE
1,6,learned,64,2,10,1,4,1,1,TRUE,5356.840000022203,3,NA,3,3,TRUE,FALSE
1,6,learned,65,3,6,4,5,4,4,TRUE,9005.914999986999,2,3,2,2,FALSE,FALSE
1,6,learned,66,5,2,3,7,3,3,TRUE,19890.81499999156,2,4,2,2,FALSE,FALSE
1,6,learned,67,4,9,3,5,3,5,FALSE,10625.410000036936,5,6,5,4,FALSE,FALSE
1,6,learned,68,2,6,4,1,4,4,TRUE,3864.575000014156,2,NA,2,2,TRUE,FALSE
1,6,learned,69,8,4,1,10,1,1,TRUE,11024.834999989253,3,NA,3,3,TRUE,FALSE
1,6,learned,70,3,1,2,5,2,2,TRUE,4124.669999990147,2,4,2,2,FALSE,FALSE
1,6,learned,71,11,2,9,12,9,12,FALSE,15057.410000008533,4,5,4,4,FALSE,FALSE
1,6,learned,72,10,13,12,8,12,12,TRUE,8343.479999981355,2,4,2,2,FALSE,FALSE
1,6,learned,73,3,7,5,4,5,5,TRUE,2963.179999962449,2,3,2,2,FALSE,FALSE
1,6,learned,74,13,10,12,11,12,12,TRUE,3145.2050000079907,2,3,2,2,FALSE,FALSE
1,6,learned,75,4,1,3,6,3,3,TRUE,8447.31999997748,3,6,3,2,FALSE,FALSE
1,6,learned,76,4,9,2,6,2,2,TRUE,25688.04999999702,4,8,4,4,FALSE,FALSE
1,6,learned,77,5,1,3,4,NA,4,TRUE,7839.76000000257,3,3,3,3,FALSE,TRUE
1,6,learned,78,4,1,2,5,2,2,TRUE,4957.884999981616,2,4,2,2,FALSE,FALSE
1,6,learned,79,2,5,3,4,NA,4,TRUE,5532.510000048205,2,2,2,2,FALSE,TRUE
1,6,learned,80,1,12,8,2,8,8,TRUE,3950.544999970589,3,NA,3,3,TRUE,FALSE
1,6,learned,81,4,8,5,6,5,5,TRUE,10989.074999990407,5,7,5,3,FALSE,FALSE
1,6,learned,82,5,1,4,7,4,4,TRUE,4420.500000007451,3,5,3,3,FALSE,FALSE
1,6,learned,83,5,8,3,7,3,3,TRUE,2956.5500000026077,4,6,4,4,FALSE,FALSE
1,6,learned,84,4,8,2,5,2,2,TRUE,3959.044999966863,3,5,3,3,FALSE,FALSE
1,6,learned,85,5,2,3,4,NA,3,TRUE,5251.474999997299,2,2,2,2,FALSE,TRUE
1,6,learned,86,4,7,6,3,6,3,FALSE,6333.779999986291,2,3,2,2,FALSE,FALSE
1,6,learned,87,10,3,8,12,8,8,TRUE,10517.784999974538,4,7,4,4,FALSE,FALSE
1,6,learned,88,3,9,4,5,4,4,TRUE,7111.559999990277,5,6,5,4,FALSE,FALSE
1,6,learned,89,5,6,4,3,4,4,TRUE,2027.284999960102,2,3,2,2,FALSE,FALSE
1,6,learned,90,5,6,4,7,NA,4,TRUE,3414.4150000065565,2,2,2,2,FALSE,TRUE
1,6,learned,91,4,9,5,6,5,5,TRUE,25145.974999992177,6,8,6,4,FALSE,FALSE
1,6,learned,92,10,11,12,8,12,12,TRUE,2980.775000003632,2,3,2,2,FALSE,FALSE
1,6,learned,93,12,8,10,11,10,10,TRUE,5516.754999989644,2,3,2,2,FALSE,FALSE
1,6,learned,94,3,6,4,2,4,4,TRUE,1895.9049999830313,2,3,2,2,FALSE,FALSE
1,6,learned,95,8,12,9,1,9,9,TRUE,7149.144999973942,3,NA,3,2,TRUE,FALSE
1,6,learned,96,9,12,11,8,11,11,TRUE,8151.194999984,2,3,2,2,FALSE,FALSE
1,6,learned,97,5,2,4,7,4,4,TRUE,1931.8849999690428,2,4,2,2,FALSE,FALSE
1,6,learned,98,1,6,2,8,2,2,TRUE,8940.145000000484,3,NA,3,3,TRUE,FALSE
1,6,learned,99,2,5,3,1,3,3,TRUE,4241.659999999683,2,NA,2,2,TRUE,FALSE
1,6,learned,100,8,6,1,9,1,1,TRUE,19230.090000026394,4,NA,4,4,TRUE,FALSE
1,6,learned,101,4,1,2,3,2,2,TRUE,3718.599999963771,2,3,2,2,FALSE,FALSE
1,6,learned,102,3,10,2,4,2,2,TRUE,3235.3549999534152,4,5,4,4,FALSE,FALSE
1,6,learned,103,8,5,1,9,1,1,TRUE,5774.814999953378,4,NA,4,4,TRUE,FALSE
1,6,learned,104,11,1,12,13,12,12,TRUE,8332.460000005085,4,5,4,3,FALSE,FALSE
1,6,learned,105,11,10,9,13,NA,9,TRUE,6394.585000001825,3,3,3,2,FALSE,TRUE
1,6,learned,106,6,2,4,7,4,4,TRUE,4202.85000000149,2,4,2,2,FALSE,FALSE
1,6,learned,107,11,1,9,13,9,9,TRUE,15749.775000032969,3,5,3,3,FALSE,FALSE
1,6,learned,108,10,4,8,12,8,12,FALSE,5746.31000001682,4,7,4,4,FALSE,FALSE
1,6,learned,109,12,2,10,11,10,10,TRUE,5331.659999967087,4,5,4,4,FALSE,FALSE
1,6,learned,110,4,8,2,6,2,2,TRUE,12016.55000000028,3,7,3,3,FALSE,FALSE
1,6,learned,111,4,8,3,6,3,3,TRUE,10830.725000007078,4,7,4,3,FALSE,FALSE
1,6,learned,112,3,7,4,2,4,4,TRUE,5032.810000004247,3,4,3,2,FALSE,FALSE
1,6,learned,113,12,1,10,13,10,10,TRUE,9396.309999981897,3,5,3,3,FALSE,FALSE
1,6,learned,114,11,2,12,13,12,12,TRUE,10492.934999987485,5,6,5,4,FALSE,FALSE
1,6,learned,115,9,4,8,11,8,11,FALSE,11242.40499996813,4,7,4,4,FALSE,FALSE
1,6,learned,116,8,2,1,10,1,1,TRUE,4748.680000018794,2,NA,2,2,TRUE,FALSE
1,6,learned,117,2,11,1,3,1,3,FALSE,5373.679999960586,4,NA,4,4,TRUE,FALSE
1,6,learned,118,4,1,3,5,3,5,FALSE,9064.505000016652,3,4,3,2,FALSE,FALSE
1,6,learned,119,7,2,5,6,NA,5,TRUE,4454.930000007153,3,3,3,3,FALSE,TRUE
1,6,learned,120,2,12,1,3,1,1,TRUE,7902.70999999484,4,NA,4,4,TRUE,FALSE
1,6,learned,121,2,7,3,4,NA,3,TRUE,8413.580000051297,3,3,3,3,FALSE,TRUE
1,6,learned,122,12,2,11,13,11,11,TRUE,16688.964999979362,5,6,5,4,FALSE,FALSE
1,6,learned,123,8,6,1,10,1,10,FALSE,8907.554999983404,4,NA,4,4,TRUE,FALSE
1,6,learned,124,11,1,9,12,9,12,FALSE,14039.544999948705,3,4,3,3,FALSE,FALSE
1,6,learned,125,12,9,11,13,11,11,TRUE,3539.4649999798276,2,3,2,2,FALSE,FALSE
1,6,learned,126,6,3,4,7,4,4,TRUE,3080.619999964256,2,3,2,2,FALSE,FALSE
1,6,learned,127,3,6,2,5,NA,5,TRUE,3230.9000000241213,3,3,3,2,FALSE,TRUE
1,6,learned,128,9,2,8,11,8,8,TRUE,16568.150000006426,3,6,3,3,FALSE,FALSE
1,6,learned,129,2,11,1,4,1,4,FALSE,18319.30000003148,4,NA,4,4,TRUE,FALSE
1,6,learned,130,3,8,2,4,2,2,TRUE,3208.9299999643117,3,4,3,3,FALSE,FALSE
1,6,learned,131,11,8,9,12,9,9,TRUE,3484.8350000102073,2,3,2,2,FALSE,FALSE
1,6,learned,132,7,3,5,6,5,5,TRUE,3005.6450000274926,2,3,2,2,FALSE,FALSE
1,6,learned,133,1,10,8,2,8,2,FALSE,2279.080000007525,2,NA,2,2,TRUE,FALSE
1,6,learned,134,11,2,9,13,9,13,FALSE,10612.7599999886,4,6,4,4,FALSE,FALSE
1,6,learned,135,12,9,10,13,NA,10,TRUE,14740.774999953806,3,3,3,2,FALSE,TRUE
1,6,learned,136,12,1,11,13,11,11,TRUE,10595.555000007153,4,5,4,3,FALSE,FALSE
1,6,learned,137,11,8,9,13,9,9,TRUE,2794.430000009015,2,4,2,2,FALSE,FALSE
1,6,learned,138,2,9,1,3,1,1,TRUE,5655.174999963492,3,NA,3,3,TRUE,FALSE
1,6,learned,139,4,10,5,6,5,5,TRUE,5444.794999959879,6,8,6,4,FALSE,FALSE
1,6,learned,140,4,7,5,6,NA,5,TRUE,3138.730000006035,2,2,2,2,FALSE,TRUE
1,6,learned,141,4,10,3,5,3,5,FALSE,4599.445000000298,5,6,5,4,FALSE,FALSE
1,6,learned,142,10,9,8,12,8,8,TRUE,3189.475000021048,2,3,2,2,FALSE,FALSE
1,6,learned,143,4,10,3,6,3,3,TRUE,4307.189999964088,5,8,5,4,FALSE,FALSE
1,6,learned,144,4,7,5,2,5,5,TRUE,5655.800000008196,2,4,2,2,FALSE,FALSE
1,6,learned,145,10,2,8,12,8,8,TRUE,2456.4600000157952,3,6,3,3,FALSE,FALSE
1,6,learned,146,8,12,10,9,10,10,TRUE,4661.06999997329,2,3,2,2,FALSE,FALSE
1,6,learned,147,5,6,7,3,7,3,FALSE,5849.025000002235,2,3,2,2,FALSE,FALSE
1,6,learned,148,4,9,2,5,2,2,TRUE,5293.735000013374,4,6,4,4,FALSE,FALSE
1,6,learned,149,11,8,12,13,12,13,FALSE,4840.5249999482185,3,4,3,2,FALSE,FALSE
1,6,learned,150,10,1,8,12,8,8,TRUE,3033.6900000106543,2,5,2,2,FALSE,FALSE
1,6,learned,151,2,10,1,3,1,3,FALSE,9399.050000008196,3,NA,3,3,TRUE,FALSE
1,6,learned,152,1,9,8,2,8,8,TRUE,1695.7200000174344,2,NA,2,2,TRUE,FALSE
1,6,learned,153,5,8,3,4,NA,3,TRUE,8518.114999984391,4,4,4,4,FALSE,TRUE
1,6,learned,154,3,9,2,4,2,2,TRUE,7667.855000006035,4,5,4,4,FALSE,FALSE
1,6,learned,155,6,8,4,7,4,7,FALSE,9069.760000041686,4,6,4,4,FALSE,FALSE
1,6,learned,156,2,6,4,3,4,4,TRUE,2368.6150000430644,2,3,2,2,FALSE,FALSE
1,6,learned,157,4,8,2,3,2,2,TRUE,1357.1349999988452,3,4,3,3,FALSE,FALSE
1,6,learned,158,9,10,8,11,8,8,TRUE,6928.6299999803305,2,3,2,2,FALSE,FALSE
1,6,learned,159,1,5,2,8,2,2,TRUE,7384.729999991134,3,NA,3,3,TRUE,FALSE
1,7,learned,1,12,8,10,13,10,10,TRUE,6274.474999983795,2,4,2,2,FALSE,FALSE
1,7,learned,2,1,4,2,8,2,2,TRUE,4008.384999993723,2,NA,2,2,TRUE,FALSE
1,7,learned,3,5,2,3,7,3,3,TRUE,3076.375000004191,2,4,2,2,FALSE,FALSE
1,7,learned,4,10,4,8,12,8,12,FALSE,10710.135000001172,4,7,4,4,FALSE,FALSE
1,7,learned,5,2,11,1,3,1,1,TRUE,9997.904999996535,4,NA,4,4,TRUE,FALSE
1,7,learned,6,5,6,4,7,NA,4,TRUE,3085.819999978412,2,2,2,2,FALSE,TRUE
1,7,learned,7,10,11,12,8,12,12,TRUE,7424.304999993183,2,3,2,2,FALSE,FALSE
1,7,learned,8,1,13,8,2,8,2,FALSE,4290.585000009742,4,NA,4,4,TRUE,FALSE
1,7,learned,9,3,8,2,4,2,2,TRUE,6436.695000040345,3,4,3,3,FALSE,FALSE
1,7,learned,10,1,9,8,2,8,8,TRUE,2080.4049999569543,2,NA,2,2,TRUE,FALSE
1,7,learned,11,3,6,4,2,4,4,TRUE,1929.2349999886935,2,3,2,2,FALSE,FALSE
1,7,learned,12,4,8,2,6,2,2,TRUE,7647.089999984019,3,7,3,3,FALSE,FALSE
1,7,learned,13,3,9,2,5,2,2,TRUE,6442.4700000090525,4,6,4,4,FALSE,FALSE
1,7,learned,14,11,10,9,13,NA,13,TRUE,4870.189999986906,3,3,3,2,FALSE,TRUE
1,7,learned,15,11,1,12,13,12,12,TRUE,2760.83500002278,4,5,4,3,FALSE,FALSE
1,7,learned,16,10,9,8,12,8,8,TRUE,14843.170000007376,2,3,2,2,FALSE,FALSE
1,7,learned,17,12,8,10,11,10,10,TRUE,4104.189999983646,2,3,2,2,FALSE,FALSE
1,7,learned,18,2,7,3,1,3,1,FALSE,5162.964999966789,3,NA,3,3,TRUE,FALSE
1,7,learned,19,4,10,5,6,5,5,TRUE,3389.3800000078045,6,8,6,4,FALSE,FALSE
1,7,learned,20,6,3,4,7,4,4,TRUE,2981.2650000094436,2,3,2,2,FALSE,FALSE
1,7,learned,21,5,8,3,7,3,7,FALSE,3988.8950000167824,4,6,4,4,FALSE,FALSE
1,7,learned,22,4,8,3,6,3,3,TRUE,6574.759999988601,4,7,4,3,FALSE,FALSE
1,7,learned,23,4,7,5,2,5,5,TRUE,5322.474999993574,2,4,2,2,FALSE,FALSE
1,7,learned,24,4,9,3,5,3,3,TRUE,5357.75000002468,5,6,5,4,FALSE,FALSE
1,7,learned,25,8,2,1,9,1,1,TRUE,3328.154999995604,2,NA,2,2,TRUE,FALSE
1,7,learned,26,1,12,8,2,8,2,FALSE,2772.034999972675,3,NA,3,3,TRUE,FALSE
1,7,learned,27,5,2,4,7,4,4,TRUE,4372.465000022203,2,4,2,2,FALSE,FALSE
1,7,learned,28,4,7,3,2,3,3,TRUE,5317.429999995511,3,4,3,2,FALSE,FALSE
1,7,learned,29,11,8,12,13,12,12,TRUE,6184.294999984559,3,4,3,2,FALSE,FALSE
1,7,learned,30,9,10,8,11,8,8,TRUE,1937.4499999685213,2,3,2,2,FALSE,FALSE
1,7,learned,31,3,1,2,5,2,2,TRUE,5320.624999993015,2,4,2,2,FALSE,FALSE
1,7,learned,32,9,12,11,8,11,11,TRUE,3013.5649999720044,2,3,2,2,FALSE,FALSE
1,7,learned,33,2,10,1,4,1,1,TRUE,4678.6799999536015,3,NA,3,3,TRUE,FALSE
1,7,learned,34,2,5,3,4,NA,3,TRUE,9270.279999997,2,2,2,2,FALSE,TRUE
1,7,learned,35,3,7,5,4,5,5,TRUE,4995.745000021998,2,3,2,2,FALSE,FALSE
1,7,learned,36,7,2,5,6,NA,5,TRUE,4090.67500004312,3,3,3,3,FALSE,TRUE
1,7,learned,37,12,8,11,13,11,11,TRUE,3611.6449999972247,3,4,3,2,FALSE,FALSE
1,7,learned,38,4,8,5,6,5,5,TRUE,4466.5099999983795,5,7,5,3,FALSE,FALSE
1,7,learned,39,8,3,1,10,1,1,TRUE,8800.734999997076,3,NA,3,3,TRUE,FALSE
1,7,learned,40,4,9,2,3,2,2,TRUE,3790.689999994356,4,5,4,4,FALSE,FALSE
1,7,learned,41,1,11,8,2,8,8,TRUE,2010.710000002291,3,NA,3,3,TRUE,FALSE
1,7,learned,42,4,7,6,2,6,6,TRUE,1676.0950000025332,2,4,2,2,FALSE,FALSE
1,7,learned,43,2,5,4,1,4,4,TRUE,1813.815000001341,2,NA,2,2,TRUE,FALSE
1,7,learned,44,8,12,10,9,10,10,TRUE,7409.059999976307,2,3,2,2,FALSE,FALSE
1,7,learned,45,1,3,2,8,2,2,TRUE,2182.924999971874,2,NA,2,2,TRUE,FALSE
1,7,learned,46,3,9,4,5,4,4,TRUE,4829.725000017788,5,6,5,4,FALSE,FALSE
1,7,learned,47,4,8,2,3,2,2,TRUE,11581.634999951348,3,4,3,3,FALSE,FALSE
1,7,learned,48,2,5,3,1,3,3,TRUE,4431.574999995064,2,NA,2,2,TRUE,FALSE
1,7,learned,49,9,13,11,8,11,11,TRUE,1429.839999997057,2,4,2,2,FALSE,FALSE
1,7,learned,50,4,1,3,5,3,3,TRUE,2975.9549999726005,3,4,3,2,FALSE,FALSE
1,7,learned,51,4,10,2,5,2,2,TRUE,3625.429999956395,4,6,4,4,FALSE,FALSE
1,7,learned,52,8,4,1,10,1,1,TRUE,5382.714999956079,3,NA,3,3,TRUE,FALSE
1,7,learned,53,4,7,6,3,6,6,TRUE,2181.8350000539795,2,3,2,2,FALSE,FALSE
1,7,learned,54,12,9,10,13,NA,13,TRUE,4088.675000006333,3,3,3,2,FALSE,TRUE
1,7,learned,55,4,9,5,6,5,5,TRUE,12422.12499998277,6,8,6,4,FALSE,FALSE
1,7,learned,56,11,10,12,9,12,12,TRUE,4612.679999961983,2,3,2,2,FALSE,FALSE
1,7,learned,57,9,4,8,11,8,8,TRUE,11842.040000017732,4,7,4,4,FALSE,FALSE
1,7,learned,58,10,2,8,12,8,12,FALSE,12972.309999982826,3,6,3,3,FALSE,FALSE
1,7,learned,59,8,12,10,1,10,10,TRUE,7573.759999999311,2,NA,2,2,TRUE,FALSE
1,7,learned,60,3,7,4,2,4,4,TRUE,9574.78500000434,3,4,3,2,FALSE,FALSE
1,7,learned,61,2,11,1,4,1,4,FALSE,7744.189999997616,4,NA,4,4,TRUE,FALSE
1,7,learned,62,8,6,1,9,1,9,FALSE,10883.519999973942,4,NA,4,4,TRUE,FALSE
1,7,learned,63,8,4,1,9,1,1,TRUE,7798.1800000416115,3,NA,3,3,TRUE,FALSE
1,7,learned,64,4,8,3,5,3,3,TRUE,5876.34999997681,4,5,4,3,FALSE,FALSE
1,7,learned,65,4,1,5,6,5,5,TRUE,3946.765000000596,4,6,4,2,FALSE,FALSE
1,7,learned,66,3,10,4,5,4,4,TRUE,3046.555000008084,5,6,5,4,FALSE,FALSE
1,7,learned,67,4,7,5,6,NA,6,TRUE,1527.494999987539,2,2,2,2,FALSE,TRUE
1,7,learned,68,12,9,11,10,11,11,TRUE,1136.6800000541843,2,3,2,2,FALSE,FALSE
1,7,learned,69,13,10,12,11,12,12,TRUE,3454.120000009425,2,3,2,2,FALSE,FALSE
1,7,learned,70,2,12,1,3,1,1,TRUE,2505.4800000507385,4,NA,4,4,TRUE,FALSE
1,7,learned,71,8,11,10,1,10,10,TRUE,1955.660000036005,3,NA,3,2,TRUE,FALSE
1,7,learned,72,7,4,5,6,NA,6,TRUE,4521.995000017341,2,2,2,2,FALSE,TRUE
1,7,learned,73,4,10,2,6,2,2,TRUE,7370.800000033341,4,8,4,4,FALSE,FALSE
1,7,learned,74,1,6,2,8,2,8,FALSE,3842.5700000370857,3,NA,3,3,TRUE,FALSE
1,7,learned,75,12,1,10,13,10,10,TRUE,4466.104999999516,3,5,3,3,FALSE,FALSE
1,7,learned,76,6,5,4,7,NA,4,TRUE,9026.654999994207,2,2,2,2,FALSE,TRUE
1,7,learned,77,3,10,2,5,2,2,TRUE,8112.569999997504,4,6,4,4,FALSE,FALSE
1,7,learned,78,5,6,4,3,4,4,TRUE,6424.110000021756,2,3,2,2,FALSE,FALSE
1,7,learned,79,13,8,11,12,NA,11,TRUE,2791.6600000462495,3,3,3,3,FALSE,TRUE
1,7,learned,80,4,10,3,5,3,3,TRUE,3524.74500000244,5,6,5,4,FALSE,FALSE
1,7,learned,81,4,9,2,5,2,2,TRUE,3575.654999993276,4,6,4,4,FALSE,FALSE
1,7,learned,82,3,6,4,5,4,4,TRUE,3055.7849999750033,2,3,2,2,FALSE,FALSE
1,7,learned,83,3,7,5,2,5,2,FALSE,10179.769999987911,2,4,2,2,FALSE,FALSE
1,7,learned,84,3,6,2,5,NA,5,TRUE,2998.124999983702,3,3,3,2,FALSE,TRUE
1,7,learned,85,8,13,9,1,9,9,TRUE,2534.205000032671,3,NA,3,3,TRUE,FALSE
1,7,learned,86,8,6,1,10,1,10,FALSE,4438.250000006519,4,NA,4,4,TRUE,FALSE
1,7,learned,87,10,13,12,8,12,12,TRUE,1556.105000025127,2,4,2,2,FALSE,FALSE
1,7,learned,88,2,9,1,3,1,3,FALSE,4662.805000029039,3,NA,3,3,TRUE,FALSE
1,7,learned,89,8,11,9,1,9,9,TRUE,1638.3200000273064,2,NA,2,2,TRUE,FALSE
1,7,learned,90,11,10,12,13,12,12,TRUE,2480.0950000062585,2,3,2,2,FALSE,FALSE
1,7,learned,91,12,2,10,11,10,10,TRUE,10562.235000019427,4,5,4,4,FALSE,FALSE
1,7,learned,92,4,1,2,5,2,2,TRUE,3960.4350000154222,2,4,2,2,FALSE,FALSE
1,7,learned,93,8,12,9,1,9,1,FALSE,2953.5849999519996,3,NA,3,2,TRUE,FALSE
1,7,learned,94,9,1,8,11,8,8,TRUE,2735.2350000292063,2,5,2,2,FALSE,FALSE
1,7,learned,95,11,8,9,13,9,9,TRUE,6214.834999991581,2,4,2,2,FALSE,FALSE
1,7,learned,96,3,10,2,4,2,4,FALSE,9051.260000036564,4,5,4,4,FALSE,FALSE
1,7,learned,97,13,9,11,12,11,11,TRUE,1773.9899999578483,2,3,2,2,FALSE,FALSE
1,7,learned,98,10,1,8,12,8,8,TRUE,1549.1049999836832,2,5,2,2,FALSE,FALSE
1,7,learned,99,2,8,1,4,1,1,TRUE,2000.6750000175089,2,NA,2,2,TRUE,FALSE
1,7,learned,100,2,9,1,4,1,1,TRUE,5629.979999968782,3,NA,3,3,TRUE,FALSE
1,7,learned,101,6,2,4,7,4,4,TRUE,2062.7349999849685,2,4,2,2,FALSE,FALSE
1,7,learned,102,12,2,10,13,10,10,TRUE,8139.879999973346,4,6,4,4,FALSE,FALSE
1,7,learned,103,1,5,2,8,2,2,TRUE,4060.880000004545,3,NA,3,3,TRUE,FALSE
1,7,learned,104,3,9,2,4,2,4,FALSE,4832.479999982752,4,5,4,4,FALSE,FALSE
1,7,learned,105,3,1,4,5,4,4,TRUE,4542.500000039581,3,4,3,2,FALSE,FALSE
1,7,learned,106,3,8,2,5,2,2,TRUE,3432.840000023134,3,5,3,3,FALSE,FALSE
1,7,learned,107,2,7,3,4,NA,4,TRUE,3755.325000034645,3,3,3,3,FALSE,TRUE
1,7,learned,108,4,10,2,3,2,3,FALSE,5314.775000035297,4,5,4,4,FALSE,FALSE
1,7,learned,109,8,5,1,10,1,10,FALSE,3402.600000030361,4,NA,4,4,TRUE,FALSE
1,7,learned,110,5,1,4,7,4,7,FALSE,3087.7800000016578,3,5,3,3,FALSE,FALSE
1,7,learned,111,8,13,9,10,NA,10,TRUE,4557.815000007395,3,3,3,3,FALSE,TRUE
1,7,learned,112,5,2,3,4,NA,3,TRUE,1466.5099999983795,2,2,2,2,FALSE,TRUE
1,7,learned,113,9,3,8,11,8,8,TRUE,3926.065000006929,4,7,4,4,FALSE,FALSE
1,7,learned,114,7,1,5,6,NA,5,TRUE,3283.575000008568,4,4,4,4,FALSE,TRUE
1,7,learned,115,4,1,3,6,3,3,TRUE,4121.795000042766,3,6,3,2,FALSE,FALSE
1,7,learned,116,9,2,8,11,8,11,FALSE,2434.7650000127032,3,6,3,3,FALSE,FALSE
1,7,learned,117,8,2,1,10,1,10,FALSE,15541.405000025406,2,NA,2,2,TRUE,FALSE
1,7,learned,118,4,9,3,6,3,3,TRUE,3573.4349999693222,5,8,5,4,FALSE,FALSE
1,7,learned,119,6,1,4,7,4,7,FALSE,4133.749999979045,3,5,3,3,FALSE,FALSE
1,7,learned,120,4,7,5,3,5,5,TRUE,2945.44500001939,2,3,2,2,FALSE,FALSE
1,7,learned,121,5,1,3,7,3,3,TRUE,4083.9149999665096,3,5,3,3,FALSE,FALSE
1,7,learned,122,5,6,7,3,7,7,TRUE,2417.630000039935,2,3,2,2,FALSE,FALSE
1,7,learned,123,11,1,9,12,9,12,FALSE,4365.844999963883,3,4,3,3,FALSE,FALSE
1,7,learned,124,2,7,4,1,4,4,TRUE,3495.389999996405,3,NA,3,3,TRUE,FALSE
1,7,learned,125,4,1,2,6,2,2,TRUE,4508.529999991879,2,6,2,2,FALSE,FALSE
1,7,learned,126,4,1,2,3,2,2,TRUE,2294.8099999921396,2,3,2,2,FALSE,FALSE
1,7,learned,127,6,8,4,7,4,4,TRUE,3771.004999987781,4,6,4,4,FALSE,FALSE
1,7,learned,128,5,8,3,4,NA,4,TRUE,6338.724999979604,4,4,4,4,FALSE,TRUE
1,7,learned,129,2,6,4,3,4,4,TRUE,1513.115000037942,2,3,2,2,FALSE,FALSE
1,7,learned,130,2,12,1,4,1,1,TRUE,3550.535000045784,4,NA,4,4,TRUE,FALSE
1,7,learned,131,8,5,1,9,1,1,TRUE,3123.154999979306,4,NA,4,4,TRUE,FALSE
1,7,learned,132,3,8,4,5,4,4,TRUE,2676.4400000101887,4,5,4,3,FALSE,FALSE
1,7,learned,133,2,10,1,3,1,1,TRUE,6218.010000011418,3,NA,3,3,TRUE,FALSE
1,7,learned,134,11,8,9,12,9,9,TRUE,2151.914999994915,2,3,2,2,FALSE,FALSE
1,7,learned,135,11,2,9,12,9,12,FALSE,3272.785000037402,4,5,4,4,FALSE,FALSE
1,7,learned,136,8,13,10,1,10,10,TRUE,1967.365000047721,3,NA,3,3,TRUE,FALSE
1,7,learned,137,13,1,11,12,NA,12,TRUE,5921.889999997802,4,4,4,4,FALSE,TRUE
1,7,learned,138,1,7,2,8,2,2,TRUE,11965.595000016036,4,NA,4,4,TRUE,FALSE
1,7,learned,139,2,6,4,1,4,4,TRUE,1868.6000000452625,2,NA,2,2,TRUE,FALSE
1,7,learned,140,11,2,9,13,9,13,FALSE,6353.189999994356,4,6,4,4,FALSE,FALSE
1,7,learned,141,8,3,1,9,1,1,TRUE,2777.7449999703094,3,NA,3,3,TRUE,FALSE
1,7,learned,142,12,2,11,13,11,11,TRUE,4538.765000004787,5,6,5,4,FALSE,FALSE
1,7,learned,143,11,1,9,13,9,9,TRUE,2241.524999961257,3,5,3,3,FALSE,FALSE
1,7,learned,144,2,8,1,3,1,1,TRUE,3506.1749999877065,2,NA,2,2,TRUE,FALSE
1,7,learned,145,10,3,8,12,8,12,FALSE,4636.845000030007,4,7,4,4,FALSE,FALSE
1,7,learned,146,12,9,11,13,11,11,TRUE,1540.5899999896064,2,3,2,2,FALSE,FALSE
1,7,learned,147,7,3,5,6,5,5,TRUE,5190.190000052098,2,3,2,2,FALSE,FALSE
1,7,learned,148,3,1,2,4,2,2,TRUE,7217.65000000596,2,3,2,2,FALSE,FALSE
1,7,learned,149,4,8,2,5,2,2,TRUE,2652.760000026319,3,5,3,3,FALSE,FALSE
1,7,learned,150,4,10,3,6,3,3,TRUE,3728.9849999942817,5,8,5,4,FALSE,FALSE
1,7,learned,151,12,1,11,13,11,11,TRUE,5923.899999994319,4,5,4,3,FALSE,FALSE
1,7,learned,152,4,9,2,6,2,2,TRUE,1904.529999999795,4,8,4,4,FALSE,FALSE
1,7,learned,153,8,11,9,10,9,9,TRUE,2410.95500002848,2,3,2,2,FALSE,FALSE
1,7,learned,154,2,6,3,1,3,1,FALSE,2290.4550000093877,3,NA,3,2,TRUE,FALSE
1,7,learned,155,5,8,4,7,4,7,FALSE,3540.9600000130013,4,6,4,4,FALSE,FALSE
1,7,learned,156,5,1,3,4,NA,4,TRUE,4544.529999955557,3,3,3,3,FALSE,TRUE
1,7,learned,157,11,2,12,13,12,12,TRUE,3676.819999993313,5,6,5,4,FALSE,FALSE
1,7,learned,158,1,10,8,2,8,8,TRUE,3575.6749999709427,2,NA,2,2,TRUE,FALSE
1,7,learned,159,12,1,10,11,10,10,TRUE,4682.970000023488,3,4,3,3,FALSE,FALSE
1,8,learned,1,8,12,10,1,10,1,FALSE,4866.600000008009,2,NA,2,2,TRUE,FALSE
1,8,learned,2,3,10,4,5,4,5,FALSE,3380.4999999701977,5,6,5,4,FALSE,FALSE
1,8,learned,3,4,1,3,5,3,5,FALSE,2830.3849999792874,3,4,3,2,FALSE,FALSE
1,8,learned,4,12,2,10,11,10,10,TRUE,2730.879999987781,4,5,4,4,FALSE,FALSE
1,8,learned,5,8,13,9,10,NA,9,TRUE,3312.4100000131875,3,3,3,3,FALSE,TRUE
1,8,learned,6,7,4,5,6,NA,6,TRUE,2828.3199999704957,2,2,2,2,FALSE,TRUE
1,8,learned,7,4,1,2,6,2,2,TRUE,5566.344999999739,2,6,2,2,FALSE,FALSE
1,8,learned,8,6,8,4,7,4,4,TRUE,2833.629999949597,4,6,4,4,FALSE,FALSE
1,8,learned,9,4,9,2,3,2,3,FALSE,3280.8000000072643,4,5,4,4,FALSE,FALSE
1,8,learned,10,11,8,9,13,9,9,TRUE,3054.7050000168383,2,4,2,2,FALSE,FALSE
1,8,learned,11,11,1,12,13,12,12,TRUE,6469.909999985248,4,5,4,3,FALSE,FALSE
1,8,learned,12,11,10,12,9,12,12,TRUE,2945.274999946356,2,3,2,2,FALSE,FALSE
1,8,learned,13,12,8,11,13,11,11,TRUE,3617.150000005961,3,4,3,2,FALSE,FALSE
1,8,learned,14,11,2,12,13,12,12,TRUE,2541.1049999529496,5,6,5,4,FALSE,FALSE
1,8,learned,15,9,10,8,11,8,8,TRUE,2760.18500002101,2,3,2,2,FALSE,FALSE
1,8,learned,16,8,4,1,10,1,1,TRUE,2364.25500002224,3,NA,3,3,TRUE,FALSE
1,8,learned,17,10,2,8,12,8,8,TRUE,4022.4950000420217,3,6,3,3,FALSE,FALSE
1,8,learned,18,2,5,3,4,NA,4,TRUE,2240.3000000044703,2,2,2,2,FALSE,TRUE
1,8,learned,19,3,10,2,4,2,4,FALSE,4340.819999983534,4,5,4,4,FALSE,FALSE
1,8,learned,20,8,6,1,9,1,1,TRUE,4702.830000023358,4,NA,4,4,TRUE,FALSE
1,8,learned,21,1,12,8,2,8,8,TRUE,3026.7049999684095,3,NA,3,3,TRUE,FALSE
1,8,learned,22,3,10,2,5,2,5,FALSE,3560.844999970868,4,6,4,4,FALSE,FALSE
1,8,learned,23,9,12,11,8,11,11,TRUE,2463.7249999800697,2,3,2,2,FALSE,FALSE
1,8,learned,24,4,9,2,5,2,5,FALSE,5527.629999968223,4,6,4,4,FALSE,FALSE
1,8,learned,25,3,9,2,5,2,5,FALSE,1991.740000027232,4,6,4,4,FALSE,FALSE
1,8,learned,26,2,10,1,4,1,1,TRUE,2092.215000011027,3,NA,3,3,TRUE,FALSE
1,8,learned,27,4,7,6,2,6,6,TRUE,2119.0300000021234,2,4,2,2,FALSE,FALSE
1,8,learned,28,8,2,1,10,1,1,TRUE,3265.1150000169873,2,NA,2,2,TRUE,FALSE
1,8,learned,29,8,11,9,1,9,9,TRUE,2560.2499999813735,2,NA,2,2,TRUE,FALSE
1,8,learned,30,4,10,3,5,3,3,TRUE,5704.059999959543,5,6,5,4,FALSE,FALSE
1,8,learned,31,4,9,5,6,5,5,TRUE,1857.4349999548867,6,8,6,4,FALSE,FALSE
1,8,learned,32,1,9,8,2,8,8,TRUE,1659.8750000121072,2,NA,2,2,TRUE,FALSE
1,8,learned,33,8,11,9,10,9,9,TRUE,1514.740000013262,2,3,2,2,FALSE,FALSE
1,8,learned,34,8,6,1,10,1,1,TRUE,2738.465000002645,4,NA,4,4,TRUE,FALSE
1,8,learned,35,6,3,4,7,4,4,TRUE,2349.994999997318,2,3,2,2,FALSE,FALSE
1,8,learned,36,2,8,1,4,1,4,FALSE,3163.9899999713525,2,NA,2,2,TRUE,FALSE
1,8,learned,37,13,8,11,12,NA,12,TRUE,3343.805000010878,3,3,3,3,FALSE,TRUE
1,8,learned,38,1,7,2,8,2,2,TRUE,6308.045000012033,4,NA,4,4,TRUE,FALSE
1,8,learned,39,4,1,2,5,2,5,FALSE,11357.269999978133,2,4,2,2,FALSE,FALSE
1,8,learned,40,1,3,2,8,2,8,FALSE,1879.5299999760464,2,NA,2,2,TRUE,FALSE
1,8,learned,41,3,6,4,5,4,4,TRUE,3670.119999966584,2,3,2,2,FALSE,FALSE
1,8,learned,42,11,8,12,13,12,13,FALSE,4781.94499999471,3,4,3,2,FALSE,FALSE
1,8,learned,43,4,8,3,5,3,5,FALSE,1790.1350000174716,4,5,4,3,FALSE,FALSE
1,8,learned,44,2,11,1,4,1,4,FALSE,4183.535000017844,4,NA,4,4,TRUE,FALSE
1,8,learned,45,2,8,1,3,1,3,FALSE,2592.515000026673,2,NA,2,2,TRUE,FALSE
1,8,learned,46,3,9,4,5,4,4,TRUE,2297.105000006035,5,6,5,4,FALSE,FALSE
1,8,learned,47,4,10,3,6,3,3,TRUE,2342.9000000469387,5,8,5,4,FALSE,FALSE
1,8,learned,48,4,8,2,3,2,3,FALSE,3107.020000054501,3,4,3,3,FALSE,FALSE
1,8,learned,49,12,1,10,13,10,10,TRUE,1711.3249999815598,3,5,3,3,FALSE,FALSE
1,8,learned,50,5,1,3,7,3,3,TRUE,1845.9700000230223,3,5,3,3,FALSE,FALSE
1,8,learned,51,9,3,8,11,8,8,TRUE,2679.57500001695,4,7,4,4,FALSE,FALSE
1,8,learned,52,5,6,4,3,4,4,TRUE,2309.5850000390783,2,3,2,2,FALSE,FALSE
1,8,learned,53,8,11,10,1,10,10,TRUE,4600.204999966547,3,NA,3,2,TRUE,FALSE
1,8,learned,54,5,6,7,3,7,7,TRUE,1390.760000038892,2,3,2,2,FALSE,FALSE
1,8,learned,55,1,10,8,2,8,8,TRUE,3141.0749999918044,2,NA,2,2,TRUE,FALSE
1,8,learned,56,9,1,8,11,8,8,TRUE,8371.854999975301,2,5,2,2,FALSE,FALSE
1,8,learned,57,3,8,2,4,2,4,FALSE,3310.7900000177324,3,4,3,3,FALSE,FALSE
1,8,learned,58,4,7,6,3,6,6,TRUE,2223.044999992475,2,3,2,2,FALSE,FALSE
1,8,learned,59,4,10,2,3,2,3,FALSE,4285.949999989942,4,5,4,4,FALSE,FALSE
1,8,learned,60,5,2,4,7,4,4,TRUE,2144.785000011325,2,4,2,2,FALSE,FALSE
1,8,learned,61,8,5,1,10,1,10,FALSE,3579.870000015944,4,NA,4,4,TRUE,FALSE
1,8,learned,62,4,9,3,5,3,3,TRUE,1789.4849999565631,5,6,5,4,FALSE,FALSE
1,8,learned,63,2,7,3,4,NA,4,TRUE,2907.77499997057,3,3,3,3,FALSE,TRUE
1,8,learned,64,8,3,1,10,1,1,TRUE,5454.545000043698,3,NA,3,3,TRUE,FALSE
1,8,learned,65,4,9,2,6,2,2,TRUE,3662.9749999847263,4,8,4,4,FALSE,FALSE
1,8,learned,66,2,12,1,3,1,3,FALSE,1628.6949999630451,4,NA,4,4,TRUE,FALSE
1,8,learned,67,5,1,3,4,NA,3,TRUE,2863.4549999851733,3,3,3,3,FALSE,TRUE
1,8,learned,68,2,12,1,4,1,4,FALSE,2406.839999953285,4,NA,4,4,TRUE,FALSE
1,8,learned,69,11,2,9,12,9,9,TRUE,4210.544999979436,4,5,4,4,FALSE,FALSE
1,8,learned,70,11,10,9,13,NA,13,TRUE,2740.935000008903,3,3,3,2,FALSE,TRUE
1,8,learned,71,6,1,4,7,4,4,TRUE,3393.3049999754876,3,5,3,3,FALSE,FALSE
1,8,learned,72,4,10,5,6,5,5,TRUE,4087.660000019707,6,8,6,4,FALSE,FALSE
1,8,learned,73,2,5,4,1,4,1,FALSE,3042.5099999997765,2,NA,2,2,TRUE,FALSE
1,8,learned,74,12,8,10,13,10,13,FALSE,4480.715000011958,2,4,2,2,FALSE,FALSE
1,8,learned,75,4,8,3,6,3,3,TRUE,3848.9850000478327,4,7,4,3,FALSE,FALSE
1,8,learned,76,5,8,4,7,4,4,TRUE,1766.6549999853596,4,6,4,4,FALSE,FALSE
1,8,learned,77,11,2,9,13,9,13,FALSE,3197.784999968484,4,6,4,4,FALSE,FALSE
1,8,learned,78,2,6,3,1,3,3,TRUE,1606.8349999841305,3,NA,3,2,TRUE,FALSE
1,8,learned,79,3,1,2,4,2,4,FALSE,2524.334999965504,2,3,2,2,FALSE,FALSE
1,8,learned,80,8,13,9,1,9,9,TRUE,2998.9749999940395,3,NA,3,3,TRUE,FALSE
1,8,learned,81,13,10,12,11,12,12,TRUE,4048.3750000130385,2,3,2,2,FALSE,FALSE
1,8,learned,82,5,2,3,7,3,3,TRUE,2005.244999948889,2,4,2,2,FALSE,FALSE
1,8,learned,83,4,1,3,6,3,6,FALSE,3633.755000016652,3,6,3,2,FALSE,FALSE
1,8,learned,84,4,8,2,6,2,6,FALSE,2605.6749999988824,3,7,3,3,FALSE,FALSE
1,8,learned,85,3,8,4,5,4,4,TRUE,4007.555000018328,4,5,4,3,FALSE,FALSE
1,8,learned,86,1,13,8,2,8,8,TRUE,1635.5099999932572,4,NA,4,4,TRUE,FALSE
1,8,learned,87,8,5,1,9,1,9,FALSE,1729.8750000195578,4,NA,4,4,TRUE,FALSE
1,8,learned,88,10,13,12,8,12,12,TRUE,4262.285000003874,2,4,2,2,FALSE,FALSE
1,8,learned,89,7,3,5,6,5,5,TRUE,1760.8600000385195,2,3,2,2,FALSE,FALSE
1,8,learned,90,10,1,8,12,8,12,FALSE,2940.1249999646097,2,5,2,2,FALSE,FALSE
1,8,learned,91,8,12,9,1,9,9,TRUE,1404.8000000184402,3,NA,3,2,TRUE,FALSE
1,8,learned,92,5,8,3,4,NA,4,TRUE,1458.9949999935925,4,4,4,4,FALSE,TRUE
1,8,learned,93,3,1,4,5,4,4,TRUE,7236.919999995269,3,4,3,2,FALSE,FALSE
1,8,learned,94,11,8,9,12,9,9,TRUE,1380.1100000273436,2,3,2,2,FALSE,FALSE
1,8,learned,95,8,2,1,9,1,9,FALSE,1563.7799999676645,2,NA,2,2,TRUE,FALSE
1,8,learned,96,11,10,12,13,12,12,TRUE,1495.9500000122937,2,3,2,2,FALSE,FALSE
1,8,learned,97,8,4,1,9,1,1,TRUE,2258.8500000424683,3,NA,3,3,TRUE,FALSE
1,8,learned,98,2,11,1,3,1,3,FALSE,2434.720000019297,4,NA,4,4,TRUE,FALSE
1,8,learned,99,1,6,2,8,2,8,FALSE,1558.504999964498,3,NA,3,3,TRUE,FALSE
1,8,learned,100,1,11,8,2,8,8,TRUE,2478.289999999106,3,NA,3,3,TRUE,FALSE
1,8,learned,101,7,2,5,6,NA,6,TRUE,1565.5649999976158,3,3,3,3,FALSE,TRUE
1,8,learned,102,2,6,4,1,4,4,TRUE,1918.004999984056,2,NA,2,2,TRUE,FALSE
1,8,learned,103,10,11,12,8,12,8,FALSE,2448.934999993071,2,3,2,2,FALSE,FALSE
1,8,learned,104,4,8,2,5,2,2,TRUE,2234.7150000277907,3,5,3,3,FALSE,FALSE
1,8,learned,105,2,7,4,1,4,1,FALSE,1590.1450000237674,3,NA,3,3,TRUE,FALSE
1,8,learned,106,10,9,8,12,8,8,TRUE,1530.145000026561,2,3,2,2,FALSE,FALSE
1,8,learned,107,3,9,2,4,2,4,FALSE,2166.9000000115484,4,5,4,4,FALSE,FALSE
1,8,learned,108,10,4,8,12,8,8,TRUE,1922.5299999816343,4,7,4,4,FALSE,FALSE
1,8,learned,109,5,6,4,7,NA,7,TRUE,1502.104999963194,2,2,2,2,FALSE,TRUE
1,8,learned,110,3,6,4,2,4,4,TRUE,2497.9949999842793,2,3,2,2,FALSE,FALSE
1,8,learned,111,3,6,2,5,NA,5,TRUE,1681.8799999887124,3,3,3,2,FALSE,TRUE
1,8,learned,112,3,7,5,4,5,5,TRUE,1390.124999976717,2,3,2,2,FALSE,FALSE
1,8,learned,113,7,1,5,6,NA,6,TRUE,1372.1849999856204,4,4,4,4,FALSE,TRUE
1,8,learned,114,6,5,4,7,NA,7,TRUE,1344.909999985248,2,2,2,2,FALSE,TRUE
1,8,learned,115,4,9,3,6,3,6,FALSE,1498.725000012666,5,8,5,4,FALSE,FALSE
1,8,learned,116,2,9,1,4,1,1,TRUE,1572.1350000239909,3,NA,3,3,TRUE,FALSE
1,8,learned,117,3,7,5,2,5,2,FALSE,1412.1649999860674,2,4,2,2,FALSE,FALSE
1,8,learned,118,2,6,4,3,4,4,TRUE,1565.805000020191,2,3,2,2,FALSE,FALSE
1,8,learned,119,4,7,5,3,5,5,TRUE,2233.1250000279397,2,3,2,2,FALSE,FALSE
1,8,learned,120,13,9,11,12,11,11,TRUE,1287.7699999958277,2,3,2,2,FALSE,FALSE
1,8,learned,121,4,1,2,3,2,3,FALSE,1093.374999997206,2,3,2,2,FALSE,FALSE
1,8,learned,122,4,7,3,2,3,3,TRUE,1395.8599999891594,3,4,3,2,FALSE,FALSE
1,8,learned,123,12,2,10,13,10,10,TRUE,2503.015000023879,4,6,4,4,FALSE,FALSE
1,8,learned,124,10,3,8,12,8,12,FALSE,1337.69499999471,4,7,4,4,FALSE,FALSE
1,8,learned,125,3,8,2,5,2,5,FALSE,2475.7649999810383,3,5,3,3,FALSE,FALSE
1,8,learned,126,2,5,3,1,3,3,TRUE,1631.7649999987334,2,NA,2,2,TRUE,FALSE
1,8,learned,127,9,4,8,11,8,11,FALSE,1824.9799999762329,4,7,4,4,FALSE,FALSE
1,8,learned,128,5,8,3,7,3,3,TRUE,1677.8499999772755,4,6,4,4,FALSE,FALSE
1,8,learned,129,8,12,10,9,10,9,FALSE,2068.7050000410527,2,3,2,2,FALSE,FALSE
1,8,learned,130,9,2,8,11,8,11,FALSE,1490.4650000389663,3,6,3,3,FALSE,FALSE
1,8,learned,131,12,1,11,13,11,11,TRUE,1571.264999977313,4,5,4,3,FALSE,FALSE
1,8,learned,132,12,9,11,10,11,11,TRUE,2330.6600000355393,2,3,2,2,FALSE,FALSE
1,8,learned,133,4,1,5,6,5,5,TRUE,2789.3749999925494,4,6,4,2,FALSE,FALSE
1,8,learned,134,11,1,9,13,9,9,TRUE,1380.6500000059605,3,5,3,3,FALSE,FALSE
1,8,learned,135,4,8,5,6,5,6,FALSE,1315.9750000340864,5,7,5,3,FALSE,FALSE
1,8,learned,136,13,1,11,12,NA,11,TRUE,1796.595000022091,4,4,4,4,FALSE,TRUE
1,8,learned,137,12,9,11,13,11,11,TRUE,1280.290000025183,2,3,2,2,FALSE,FALSE
1,8,learned,138,8,3,1,9,1,1,TRUE,2161.9700000155717,3,NA,3,3,TRUE,FALSE
1,8,learned,139,12,8,10,11,10,10,TRUE,1601.9749999977648,2,3,2,2,FALSE,FALSE
1,8,learned,140,1,4,2,8,2,2,TRUE,1972.18000004068,2,NA,2,2,TRUE,FALSE
1,8,learned,141,12,1,10,11,10,10,TRUE,1859.5199999976903,3,4,3,3,FALSE,FALSE
1,8,learned,142,2,10,1,3,1,3,FALSE,3202.0550000015646,3,NA,3,3,TRUE,FALSE
1,8,learned,143,4,10,2,6,2,2,TRUE,1829.0499999998135,4,8,4,4,FALSE,FALSE
1,8,learned,144,4,10,2,5,2,5,FALSE,2453.8199999956414,4,6,4,4,FALSE,FALSE
1,8,learned,145,9,13,11,8,11,11,TRUE,1355.890000006184,2,4,2,2,FALSE,FALSE
1,8,learned,146,8,13,10,1,10,1,FALSE,4385.000000009313,3,NA,3,3,TRUE,FALSE
1,8,learned,147,5,1,4,7,4,7,FALSE,1576.8950000060722,3,5,3,3,FALSE,FALSE
1,8,learned,148,6,2,4,7,4,4,TRUE,1815.1500000385568,2,4,2,2,FALSE,FALSE
1,8,learned,149,2,7,3,1,3,1,FALSE,3351.94999998156,3,NA,3,3,TRUE,FALSE
1,8,learned,150,2,9,1,3,1,3,FALSE,1332.6750000128525,3,NA,3,3,TRUE,FALSE
1,8,learned,151,4,7,5,2,5,5,TRUE,2863.6950000068173,2,4,2,2,FALSE,FALSE
1,8,learned,152,12,9,10,13,NA,13,TRUE,3043.1049999902025,3,3,3,2,FALSE,TRUE
1,8,learned,153,3,1,2,5,2,2,TRUE,2356.640000011772,2,4,2,2,FALSE,FALSE
1,8,learned,154,5,2,3,4,NA,4,TRUE,1277.720000013709,2,2,2,2,FALSE,TRUE
1,8,learned,155,4,7,5,6,NA,6,TRUE,1335.175000014715,2,2,2,2,FALSE,TRUE
1,8,learned,156,3,7,4,2,4,4,TRUE,1898.9849999779835,3,4,3,2,FALSE,FALSE
1,8,learned,157,12,2,11,13,11,13,FALSE,3116.6949999760836,5,6,5,4,FALSE,FALSE
1,8,learned,158,1,5,2,8,2,2,TRUE,1701.8850000454113,3,NA,3,3,TRUE,FALSE
1,8,learned,159,11,1,9,12,9,9,TRUE,2518.6300000064075,3,4,3,3,FALSE,FALSE
1,9,learned,1,4,8,2,5,2,2,TRUE,23265.030000009578,3,5,3,3,FALSE,FALSE
1,9,learned,2,8,6,1,9,1,9,FALSE,16675.294999964535,4,NA,4,4,TRUE,FALSE
1,9,learned,3,8,12,10,9,10,10,TRUE,5525.489999970887,2,3,2,2,FALSE,FALSE
1,9,learned,4,8,4,1,9,1,1,TRUE,21469.270000001416,3,NA,3,3,TRUE,FALSE
1,9,learned,5,3,8,2,5,2,2,TRUE,5630.5300000240095,3,5,3,3,FALSE,FALSE
1,9,learned,6,3,8,2,4,2,4,FALSE,7200.804999971297,3,4,3,3,FALSE,FALSE
1,9,learned,7,1,5,2,8,2,2,TRUE,4633.740000019316,3,NA,3,3,TRUE,FALSE
1,9,learned,8,9,1,8,11,8,8,TRUE,7488.489999959711,2,5,2,2,FALSE,FALSE
1,9,learned,9,8,11,9,1,9,9,TRUE,4032.169999962207,2,NA,2,2,TRUE,FALSE
1,9,learned,10,4,1,2,3,2,2,TRUE,7006.850000005215,2,3,2,2,FALSE,FALSE
1,9,learned,11,13,9,11,12,11,11,TRUE,8043.899999989662,2,3,2,2,FALSE,FALSE
1,9,learned,12,5,8,3,7,3,3,TRUE,18671.879999979865,4,6,4,4,FALSE,FALSE
1,9,learned,13,4,9,2,5,2,5,FALSE,9887.38500000909,4,6,4,4,FALSE,FALSE
1,9,learned,14,5,2,3,4,NA,3,TRUE,9566.884999978356,2,2,2,2,FALSE,TRUE
1,9,learned,15,4,1,3,5,3,3,TRUE,6076.454999973066,3,4,3,2,FALSE,FALSE
1,9,learned,16,3,10,2,5,2,2,TRUE,7388.169999991078,4,6,4,4,FALSE,FALSE
1,9,learned,17,12,9,10,13,NA,10,TRUE,7683.799999998882,3,3,3,2,FALSE,TRUE
1,9,learned,18,10,4,8,12,8,8,TRUE,10822.589999996126,4,7,4,4,FALSE,FALSE
1,9,learned,19,9,3,8,11,8,8,TRUE,14905.815000005532,4,7,4,4,FALSE,FALSE
1,9,learned,20,8,11,10,1,10,10,TRUE,6447.600000014063,3,NA,3,2,TRUE,FALSE
1,9,learned,21,1,13,8,2,8,2,FALSE,7020.769999944605,4,NA,4,4,TRUE,FALSE
1,9,learned,22,8,12,9,1,9,9,TRUE,17905.945000005886,3,NA,3,2,TRUE,FALSE
1,9,learned,23,8,11,9,10,9,9,TRUE,32018.685000017285,2,3,2,2,FALSE,FALSE
1,9,learned,24,2,6,3,1,3,3,TRUE,8973.809999995865,3,NA,3,2,TRUE,FALSE
1,9,learned,25,4,1,2,5,2,2,TRUE,6089.075000025332,2,4,2,2,FALSE,FALSE
1,9,learned,26,8,13,9,10,NA,10,TRUE,30160.7049999875,3,3,3,3,FALSE,TRUE
1,9,learned,27,1,10,8,2,8,2,FALSE,3241.894999984652,2,NA,2,2,TRUE,FALSE
1,9,learned,28,4,10,2,3,2,2,TRUE,6326.4799999888055,4,5,4,4,FALSE,FALSE
1,9,learned,29,4,7,6,2,6,6,TRUE,9424.494999984743,2,4,2,2,FALSE,FALSE
1,9,learned,30,1,4,2,8,2,2,TRUE,4831.899999990128,2,NA,2,2,TRUE,FALSE
1,9,learned,31,2,9,1,3,1,3,FALSE,7982.970000011846,3,NA,3,3,TRUE,FALSE
1,9,learned,32,4,10,5,6,5,5,TRUE,4936.824999982491,6,8,6,4,FALSE,FALSE
1,9,learned,33,3,1,2,4,2,4,FALSE,12943.650000030177,2,3,2,2,FALSE,FALSE
1,9,learned,34,11,10,12,13,12,12,TRUE,6638.860000006389,2,3,2,2,FALSE,FALSE
1,9,learned,35,13,8,11,12,NA,11,TRUE,4812.139999994542,3,3,3,3,FALSE,TRUE
1,9,learned,36,11,8,9,13,9,9,TRUE,19281.669999996662,2,4,2,2,FALSE,FALSE
1,9,learned,37,12,1,10,11,10,10,TRUE,3543.7549999915063,3,4,3,3,FALSE,FALSE
1,9,learned,38,12,1,11,13,11,11,TRUE,2852.670000051148,4,5,4,3,FALSE,FALSE
1,9,learned,39,3,7,4,2,4,4,TRUE,6647.605000005569,3,4,3,2,FALSE,FALSE
1,9,learned,40,2,7,3,1,3,3,TRUE,5347.0349999843165,3,NA,3,3,TRUE,FALSE
1,9,learned,41,11,8,9,12,9,9,TRUE,2974.485000013374,2,3,2,2,FALSE,FALSE
1,9,learned,42,2,7,4,1,4,4,TRUE,22491.92999996012,3,NA,3,3,TRUE,FALSE
1,9,learned,43,2,5,3,4,NA,3,TRUE,12619.479999993928,2,2,2,2,FALSE,TRUE
1,9,learned,44,10,9,8,12,8,8,TRUE,8190.850000013597,2,3,2,2,FALSE,FALSE
1,9,learned,45,1,12,8,2,8,2,FALSE,4717.930000042543,3,NA,3,3,TRUE,FALSE
1,9,learned,46,5,2,3,7,3,3,TRUE,3609.645000018645,2,4,2,2,FALSE,FALSE
1,9,learned,47,1,11,8,2,8,2,FALSE,5452.904999954626,3,NA,3,3,TRUE,FALSE
1,9,learned,48,8,13,9,1,9,9,TRUE,4343.785000033677,3,NA,3,3,TRUE,FALSE
1,9,learned,49,13,1,11,12,NA,11,TRUE,9665.939999977129,4,4,4,4,FALSE,TRUE
1,9,learned,50,9,12,11,8,11,11,TRUE,12555.854999984149,2,3,2,2,FALSE,FALSE
1,9,learned,51,8,4,1,10,1,10,FALSE,8940.805000020191,3,NA,3,3,TRUE,FALSE
1,9,learned,52,11,10,12,9,12,9,FALSE,9227.840000006836,2,3,2,2,FALSE,FALSE
1,9,learned,53,9,13,11,8,11,11,TRUE,5407.609999994747,2,4,2,2,FALSE,FALSE
1,9,learned,54,4,7,5,3,5,5,TRUE,7374.965000024531,2,3,2,2,FALSE,FALSE
1,9,learned,55,8,2,1,9,1,1,TRUE,17701.230000006035,2,NA,2,2,TRUE,FALSE
1,9,learned,56,10,2,8,12,8,8,TRUE,6164.005000027828,3,6,3,3,FALSE,FALSE
1,9,learned,57,4,8,3,6,3,3,TRUE,4629.079999984242,4,7,4,3,FALSE,FALSE
1,9,learned,58,3,10,2,4,2,2,TRUE,81496.05000001611,4,5,4,4,FALSE,FALSE
1,9,learned,59,6,3,4,7,4,4,TRUE,10034.504999988712,2,3,2,2,FALSE,FALSE
1,9,learned,60,2,8,1,3,1,1,TRUE,10027.739999990445,2,NA,2,2,TRUE,FALSE
1,9,learned,61,4,7,5,2,5,5,TRUE,99037.77499997524,2,4,2,2,FALSE,FALSE
1,9,learned,62,1,7,2,8,2,2,TRUE,5918.130000005476,4,NA,4,4,TRUE,FALSE
1,9,learned,63,11,10,9,13,NA,9,TRUE,3698.919999995269,3,3,3,2,FALSE,TRUE
1,9,learned,64,12,1,10,13,10,10,TRUE,6560.5150000192225,3,5,3,3,FALSE,FALSE
1,9,learned,65,5,6,4,3,4,4,TRUE,8259.704999974929,2,3,2,2,FALSE,FALSE
1,9,learned,66,6,1,4,7,4,4,TRUE,3586.6749999695458,3,5,3,3,FALSE,FALSE
1,9,learned,67,4,9,3,5,3,3,TRUE,3200.9950000210665,5,6,5,4,FALSE,FALSE
1,9,learned,68,2,5,4,1,4,4,TRUE,4595.319999963976,2,NA,2,2,TRUE,FALSE
1,9,learned,69,8,3,1,10,1,1,TRUE,10011.189999990163,3,NA,3,3,TRUE,FALSE
1,9,learned,70,12,9,11,13,11,11,TRUE,9140.27500001248,2,3,2,2,FALSE,FALSE
1,9,learned,71,3,9,2,4,2,2,TRUE,10654.444999992847,4,5,4,4,FALSE,FALSE
1,9,learned,72,3,1,4,5,4,4,TRUE,17682.354999997187,3,4,3,2,FALSE,FALSE
1,9,learned,73,4,9,3,6,3,3,TRUE,6480.364999966696,5,8,5,4,FALSE,FALSE
1,9,learned,74,2,12,1,3,1,3,FALSE,3681.054999993648,4,NA,4,4,TRUE,FALSE
1,9,learned,75,2,7,3,4,NA,4,TRUE,16432.715000002645,3,3,3,3,FALSE,TRUE
1,9,learned,76,8,6,1,10,1,10,FALSE,4306.559999997262,4,NA,4,4,TRUE,FALSE
1,9,learned,77,10,3,8,12,8,8,TRUE,4564.5950000034645,4,7,4,4,FALSE,FALSE
1,9,learned,78,1,6,2,8,2,2,TRUE,5416.4899999741465,3,NA,3,3,TRUE,FALSE
1,9,learned,79,11,8,12,13,12,12,TRUE,4058.370000042487,3,4,3,2,FALSE,FALSE
1,9,learned,80,6,8,4,7,4,4,TRUE,7031.79999999702,4,6,4,4,FALSE,FALSE
1,9,learned,81,5,6,4,7,NA,7,TRUE,4709.705000044778,2,2,2,2,FALSE,TRUE
1,9,learned,82,3,9,2,5,2,5,FALSE,8830.664999957662,4,6,4,4,FALSE,FALSE
1,9,learned,83,4,7,6,3,6,6,TRUE,7213.504999992438,2,3,2,2,FALSE,FALSE
1,9,learned,84,9,10,8,11,8,8,TRUE,13431.800000020305,2,3,2,2,FALSE,FALSE
1,9,learned,85,8,2,1,10,1,10,FALSE,4085.729999991599,2,NA,2,2,TRUE,FALSE
1,9,learned,86,12,8,11,13,11,11,TRUE,7069.735000026412,3,4,3,2,FALSE,FALSE
1,9,learned,87,4,8,2,6,2,2,TRUE,7300.535000045784,3,7,3,3,FALSE,FALSE
1,9,learned,88,10,11,12,8,12,12,TRUE,4062.009999994189,2,3,2,2,FALSE,FALSE
1,9,learned,89,3,6,4,2,4,4,TRUE,4302.510000008624,2,3,2,2,FALSE,FALSE
1,9,learned,90,10,1,8,12,8,8,TRUE,6446.830000029877,2,5,2,2,FALSE,FALSE
1,9,learned,91,5,1,3,7,3,3,TRUE,2558.79499996081,3,5,3,3,FALSE,FALSE
1,9,learned,92,3,8,4,5,4,4,TRUE,4216.970000008587,4,5,4,3,FALSE,FALSE
1,9,learned,93,3,6,4,5,4,5,FALSE,6659.890000009909,2,3,2,2,FALSE,FALSE
1,9,learned,94,6,5,4,7,NA,7,TRUE,4381.669999973383,2,2,2,2,FALSE,TRUE
1,9,learned,95,5,2,4,7,4,4,TRUE,3797.820000036154,2,4,2,2,FALSE,FALSE
1,9,learned,96,12,2,10,11,10,11,FALSE,7961.950000026263,4,5,4,4,FALSE,FALSE
1,9,learned,97,2,11,1,4,1,4,FALSE,24489.515000022948,4,NA,4,4,TRUE,FALSE
1,9,learned,98,1,3,2,8,2,2,TRUE,8733.744999975897,2,NA,2,2,TRUE,FALSE
1,9,learned,99,4,9,5,6,5,5,TRUE,4290.804999996908,6,8,6,4,FALSE,FALSE
1,9,learned,100,8,5,1,10,1,10,FALSE,13899.860000004992,4,NA,4,4,TRUE,FALSE
1,9,learned,101,2,6,4,3,4,4,TRUE,4778.454999963287,2,3,2,2,FALSE,FALSE
1,9,learned,102,13,10,12,11,12,11,FALSE,7762.815000023693,2,3,2,2,FALSE,FALSE
1,9,learned,103,4,10,3,6,3,3,TRUE,3392.5900000031106,5,8,5,4,FALSE,FALSE
1,9,learned,104,12,2,11,13,11,11,TRUE,3321.1199999786913,5,6,5,4,FALSE,FALSE
1,9,learned,105,3,10,4,5,4,4,TRUE,7054.724999994505,5,6,5,4,FALSE,FALSE
1,9,learned,106,5,6,7,3,7,7,TRUE,3093.574999948032,2,3,2,2,FALSE,FALSE
1,9,learned,107,3,7,5,2,5,5,TRUE,3452.0799999590963,2,4,2,2,FALSE,FALSE
1,9,learned,108,4,7,3,2,3,3,TRUE,10880.794999946374,3,4,3,2,FALSE,FALSE
1,9,learned,109,2,6,4,1,4,4,TRUE,4497.700000007171,2,NA,2,2,TRUE,FALSE
1,9,learned,110,11,1,9,13,9,9,TRUE,15666.420000023209,3,5,3,3,FALSE,FALSE
1,9,learned,111,10,13,12,8,12,12,TRUE,13713.634999992792,2,4,2,2,FALSE,FALSE
